MkMagnettoSettings {rangeAcc = RA2, rangeGyro = RG125, cycleMag = CM200, frequencyAccAndGyro = FAG25, frequencyMag = FM600}
MkPortName {portName = "/dev/ttyUSB0"}
System Coordinate = Base (how as PNI)

Time         TimeStep MagX   MagY    MagZ   AccX   AccY   AccZ  GyroX  GyroY  GyroZ     Temp       Pitch   Roll  Azimuth
   0.1     0.0400490000    6.4530000000  -10.6260000000   37.4000000000    0.0303950000   -0.0313720000    1.0036620000    0.1830000000    0.0530000000    0.0760000000      29.9         -1.7337746816   -1.7903419053   60.6788571313 
   0.2     0.0400500000    6.5060000000  -10.5860000000   37.6130000000    0.0306390000   -0.0312500000    1.0035400000    0.1670000000    0.0610000000    0.0680000000      29.9         -1.7479029422   -1.7836007615   60.3977715584 
   0.2     0.0400500000    6.4800000000  -10.6000000000   37.5460000000    0.0303950000   -0.0317380000    1.0035400000    0.1830000000    0.0450000000    0.0530000000      29.9         -1.7339652685   -1.8114350573   60.4601018186 
   0.2     0.0400500000    6.4930000000  -10.6400000000   37.4000000000    0.0299070000   -0.0311270000    1.0035400000    0.1450000000    0.0450000000    0.0610000000      29.9         -1.7061750577   -1.7765850166   60.4708511761 
   0.3     0.0400500000    6.4130000000  -10.6530000000   37.3600000000    0.0308830000   -0.0312500000    1.0040280000    0.1750000000    0.0530000000    0.0910000000      30.1         -1.7609590416   -1.7827344157   61.0261920162 
   0.3     0.0400500000    6.4930000000  -10.5860000000   37.6130000000    0.0302730000   -0.0310050000    1.0032950000    0.1520000000    0.0610000000    0.0680000000      29.7         -1.7274701220   -1.7700581174   60.4181514080 
   0.4     0.0400500000    6.4930000000  -10.6130000000   37.4660000000    0.0314940000   -0.0310050000    1.0036620000    0.1450000000    0.0530000000    0.0830000000      29.9         -1.7964432481   -1.7694112878   60.6913471467 
   0.4     0.0400500000    6.4660000000  -10.6260000000   37.3860000000    0.0296630000   -0.0316160000    1.0032950000    0.1600000000    0.0530000000    0.0610000000      29.8         -1.6926499916   -1.8049169164   60.4686290211 
   0.4     0.0400500000    6.5460000000  -10.5730000000   37.5600000000    0.0302730000   -0.0310050000    1.0034170000    0.1450000000    0.0680000000    0.0530000000      30.1         -1.7272604158   -1.7698430426   60.1375523419 
   0.5     0.0400490000    6.5200000000  -10.5860000000   37.5730000000    0.0306390000   -0.0313720000    1.0029290000    0.1670000000    0.0380000000    0.0680000000      29.9         -1.7489594675   -1.7916495409   60.3205270902 
   0.5     0.0400500000    6.4930000000  -10.6400000000   37.4000000000    0.0299070000   -0.0314940000    1.0028070000    0.1670000000    0.0450000000    0.1060000000      30.1         -1.7074007666   -1.7988310452   60.4370509545 
   0.6     0.0400490000    6.4130000000  -10.6800000000   37.3460000000    0.0302730000   -0.0313720000    1.0034170000    0.1600000000    0.0530000000    0.0680000000      30.0         -1.7272408106   -1.7907787608   60.9783629585 
   0.6     0.0400500000    6.5200000000  -10.5860000000   37.6000000000    0.0312500000   -0.0312500000    1.0032950000    0.1900000000    0.0380000000    0.0830000000      29.9         -1.7831718157   -1.7840360271   60.4398037508 
   0.6     0.0400500000    6.5060000000  -10.6130000000   37.5200000000    0.0295410000   -0.0317380000    1.0031730000    0.1600000000    0.0380000000    0.0680000000      30.1         -1.6858905891   -1.8120973094   60.2255432452 
   0.7     0.0400500000    6.4660000000  -10.6400000000   37.3730000000    0.0308830000   -0.0314940000    1.0032950000    0.1900000000    0.0300000000    0.0990000000      30.1         -1.7622301493   -1.7979566730   60.7275242016 
   0.7     0.0400500000    6.3860000000  -10.6660000000   37.3200000000    0.0306390000   -0.0307610000    1.0030510000    0.1830000000    0.0530000000    0.0760000000      29.9         -1.7487800240   -1.7565639774   61.1877228213 
   0.8     0.0400490000    6.4800000000  -10.5860000000   37.5730000000    0.0306390000   -0.0308830000    1.0034170000    0.1670000000    0.0530000000    0.0530000000      30.1         -1.7481366261   -1.7628833801   60.5510828209 
   0.8     0.0400500000    6.4930000000  -10.6260000000   37.4530000000    0.0302730000   -0.0308830000    1.0032950000    0.1830000000    0.0380000000    0.0760000000      29.9         -1.7274765906   -1.7630976102   60.5248535344 
   0.8     0.0400490000    6.4400000000  -10.6400000000   37.3730000000    0.0303950000   -0.0310050000    1.0029290000    0.1520000000    0.0680000000    0.0760000000      29.9         -1.7350595280   -1.7707036556   60.8101027114 
   0.9     0.0400500000    6.5200000000  -10.5600000000   37.5600000000    0.0307610000   -0.0316160000    1.0035400000    0.1900000000    0.0760000000    0.0910000000      29.9         -1.7548384777   -1.8044765630   60.2473758094 
   0.9     0.0400490000    6.5060000000  -10.5860000000   37.5730000000    0.0305170000   -0.0311270000    1.0028070000    0.1830000000    0.0610000000    0.0830000000      29.9         -1.7422245016   -1.7778827752   60.3878110087 
   1.0     0.0400500000    6.4660000000  -10.6530000000   37.3860000000    0.0306390000   -0.0321040000    1.0034170000    0.1520000000    0.0680000000    0.0760000000      30.1         -1.7480699694   -1.8325346721   60.6607970271 
   1.0     0.0400500000    6.4130000000  -10.6660000000   37.3060000000    0.0305170000   -0.0314940000    1.0035400000    0.1520000000    0.0530000000    0.0530000000      30.1         -1.7409341293   -1.7975180155   60.9706271852 
   1.0     0.0400500000    6.5060000000  -10.5860000000   37.5460000000    0.0299070000   -0.0318600000    1.0031730000    0.1520000000    0.0220000000    0.0760000000      29.9         -1.7067591844   -1.8190582908   60.2075529483 
   1.1     0.0400500000    6.5200000000  -10.6400000000   37.4130000000    0.0302730000   -0.0311270000    1.0026850000    0.1520000000    0.0610000000    0.0760000000      30.1         -1.7285129107   -1.7780989572   60.4131516478 
   1.1     0.0400500000    6.4800000000  -10.6530000000   37.2930000000    0.0299070000   -0.0327140000    1.0031730000    0.1830000000    0.0380000000    0.0760000000      29.9         -1.7067124976   -1.8677836449   60.4062833372 
   1.2     0.0400500000    6.5330000000  -10.6000000000   37.4400000000    0.0312500000   -0.0313720000    1.0028070000    0.1670000000    0.0450000000    0.0830000000      29.9         -1.7840314002   -1.7918673682   60.3960659656 
   1.2     0.0400490000    6.5060000000  -10.6400000000   37.4530000000    0.0297850000   -0.0307610000    1.0031730000    0.1670000000    0.0450000000    0.1060000000      29.9         -1.6998589046   -1.7563504883   60.4293734952 
   1.2     0.0400500000    6.5060000000  -10.6400000000   37.3200000000    0.0302730000   -0.0321040000    1.0028070000    0.1830000000    0.0450000000    0.0760000000      29.9         -1.7282499520   -1.8336486285   60.3774256481 
   1.3     0.0400500000    6.4530000000  -10.6800000000   37.2130000000    0.0308830000   -0.0311270000    1.0030510000    0.1600000000    0.0450000000    0.0990000000      29.9         -1.7626782327   -1.7774505688   60.9158851659 
   1.3     0.0400500000    6.5200000000  -10.6000000000   37.4530000000    0.0291740000   -0.0311270000    1.0034170000    0.1600000000    0.0300000000    0.0910000000      30.1         -1.6645854075   -1.7768026529   60.1196527411 
   1.4     0.0400500000    6.5200000000  -10.6260000000   37.4130000000    0.0305170000   -0.0312500000    1.0028070000    0.1600000000    0.0450000000    0.0760000000      30.1         -1.7422178660   -1.7849036383   60.4067316070 
   1.4     0.0400500000    6.4930000000  -10.6400000000   37.2530000000    0.0302730000   -0.0314940000    1.0030510000    0.1670000000    0.0530000000    0.0610000000      29.9         -1.7278634851   -1.7983937528   60.4914896916 
   1.4     0.0400500000    6.5460000000  -10.5860000000   37.3460000000    0.0305170000   -0.0312500000    1.0034170000    0.1670000000    0.0450000000    0.0680000000      29.8         -1.7411604102   -1.7838192560   60.1778074405 
   1.5     0.0400490000    6.5330000000  -10.6260000000   37.4660000000    0.0300290000   -0.0312500000    1.0028070000    0.1520000000    0.0450000000    0.0760000000      29.8         -1.7143746692   -1.7849036383   60.2659373293 
   1.5     0.0400500000    6.4930000000  -10.6400000000   37.3060000000    0.0302730000   -0.0316160000    1.0032950000    0.1670000000    0.0610000000    0.0910000000      29.9         -1.7274373431   -1.8049169164   60.4822379467 
   1.6     0.0400490000    6.4530000000  -10.6660000000   37.2260000000    0.0300290000   -0.0316160000    1.0031730000    0.1750000000    0.0610000000    0.0530000000      30.1         -1.7137306116   -1.8051362746   60.6867449944 
   1.6     0.0400500000    6.5330000000  -10.6130000000   37.3860000000    0.0303950000   -0.0317380000    1.0034170000    0.1670000000    0.0450000000    0.0760000000      29.9         -1.7341774779   -1.8116569571   60.2419595206 
   1.6     0.0400500000    6.5200000000  -10.6260000000   37.4130000000    0.0295410000   -0.0318600000    1.0034170000    0.1670000000    0.0220000000    0.0760000000      29.9         -1.6854747946   -1.8186162492   60.1777094489 
   1.7     0.0400500000    6.4800000000  -10.6660000000   37.2660000000    0.0297850000   -0.0321040000    1.0030510000    0.1670000000    0.0610000000    0.0760000000      29.9         -1.6999941240   -1.8332028835   60.4766801787 
   1.7     0.0400500000    6.6000000000  -10.5730000000   37.3200000000    0.0305170000   -0.0306390000    1.0032950000    0.1290000000    0.0300000000    0.0610000000      30.1         -1.7414044562   -1.7491764398   59.9554169567 
   1.8     0.0400500000    6.5330000000  -10.6130000000   37.4400000000    0.0303950000   -0.0312500000    1.0030510000    0.0990000000    0.0300000000    0.0990000000      29.9         -1.7348356956   -1.7844697273   60.2932070480 
   1.8     0.0400500000    6.5060000000  -10.6530000000   37.3330000000    0.0305170000   -0.0310050000    1.0030510000    0.0760000000   -0.0070000000    0.0530000000      30.1         -1.7418079116   -1.7704884239   60.5592056388 
   1.8     0.0400490000    6.5060000000  -10.6800000000   37.2130000000    0.0300290000   -0.0316160000    1.0031730000    0.0610000000   -0.0150000000    0.0760000000      30.1         -1.7137306116   -1.8051362746   60.4796578898 
   1.9     0.0400500000    6.5600000000  -10.6000000000   37.3330000000    0.0303950000   -0.0317380000    1.0028070000    0.0610000000   -0.0300000000    0.0910000000      29.8         -1.7352306657   -1.8127582394   60.0826457304 
   1.9     0.0400500000    6.5200000000  -10.6400000000   37.4130000000    0.0303950000   -0.0319820000    1.0023190000    0.0910000000    0.0070000000    0.0990000000      30.1         -1.7360607250   -1.8275739764   60.3523503567 
   2.0     0.0400500000    6.5060000000  -10.6530000000   37.2800000000    0.0302730000   -0.0317380000    1.0031730000    0.1060000000    0.0220000000    0.0610000000      30.0         -1.7276404644   -1.8120973094   60.4435667133 
   2.0     0.0400500000    6.5860000000  -10.6000000000   37.2400000000    0.0306390000   -0.0310050000    1.0026850000    0.1450000000    0.0380000000    0.0680000000      29.8         -1.7494042757   -1.7711342759   60.0722338983 
   2.0     0.0400500000    6.5330000000  -10.6130000000   37.3730000000    0.0301510000   -0.0314940000    1.0018310000    0.1980000000    0.0530000000    0.0760000000      29.9         -1.7229967389   -1.8005823425   60.2262248760 
   2.1     0.0400500000    6.5060000000  -10.6530000000   37.3460000000    0.0306390000   -0.0314940000    1.0032950000    0.1830000000    0.0910000000    0.0760000000      29.9         -1.7483158197   -1.7979566730   60.5336000966 
   2.1     0.0400490000    6.5060000000  -10.6660000000   37.1730000000    0.0306390000   -0.0319820000    1.0030510000    0.1600000000    0.0380000000    0.0910000000      29.9         -1.7487135523   -1.8262411648   60.5111120867 
   2.2     0.0400500000    6.5860000000  -10.5860000000   37.2660000000    0.0292960000   -0.0316160000    1.0036620000    0.1520000000    0.0220000000    0.0830000000      30.1         -1.6711096189   -1.8042573651   59.7454243412 
   2.2     0.0400490000    6.5600000000  -10.6130000000   37.3600000000    0.0311270000   -0.0317380000    1.0030510000    0.1520000000    0.0380000000    0.0530000000      29.9         -1.7765620304   -1.8123175659   60.2440571985 
   2.2     0.0400500000    6.5460000000  -10.6530000000   37.2660000000    0.0305170000   -0.0319820000    1.0026850000    0.1600000000    0.0450000000    0.0990000000      30.1         -1.7423894669   -1.8269073276   60.2794556677 
   2.3     0.0400600000    6.6260000000  -10.5860000000   37.1860000000    0.0305170000   -0.0318600000    1.0028070000    0.1750000000    0.0380000000    0.0680000000      29.9         -1.7421845721   -1.8197217563   59.7457480513 
   2.3     0.0400400000    6.5860000000  -10.6000000000   37.3060000000    0.0308830000   -0.0316160000    1.0030510000    0.1370000000    0.0530000000    0.0680000000      30.1         -1.7626513997   -1.8053556860   60.0576978521 
   2.4     0.0400500000    6.5200000000  -10.6130000000   37.3330000000    0.0307610000   -0.0329580000    1.0034170000    0.1600000000    0.0380000000    0.0610000000      30.0         -1.7549778391   -1.8812474378   60.2432665402 
   2.4     0.0400500000    6.5330000000  -10.6660000000   37.2000000000    0.0300290000   -0.0312500000    1.0028070000    0.1450000000    0.0300000000    0.0760000000      30.1         -1.7143746692   -1.7849036383   60.3553628835 
   2.4     0.0400500000    6.6260000000  -10.6000000000   37.2000000000    0.0316160000   -0.0319820000    1.0025630000    0.1600000000    0.0450000000    0.0910000000      29.9         -1.8053161394   -1.8271294898   59.9602112390 
   2.5     0.0400490000    6.5600000000  -10.6400000000   37.3600000000    0.0300290000   -0.0317380000    1.0029290000    0.1670000000    0.0530000000    0.0680000000      30.1         -1.7141403030   -1.8125378759   60.1259969008 
   2.5     0.0400500000    6.5600000000  -10.6530000000   37.3060000000    0.0302730000   -0.0324700000    1.0029290000    0.1520000000    0.0680000000    0.0760000000      29.9         -1.7280197960   -1.8543130944   60.1280465138 
   2.6     0.0400490000    6.5330000000  -10.6930000000   37.1730000000    0.0296630000   -0.0323480000    1.0028070000    0.1600000000    0.0220000000    0.0680000000      29.9         -1.6934330354   -1.8475752839   60.2562861264 
   2.6     0.0400500000    6.6000000000  -10.6400000000   37.3060000000    0.0300290000   -0.0317380000    1.0023190000    0.1830000000    0.0530000000    0.0380000000      29.9         -1.7151818425   -1.8136402294   59.9425167676 
   2.6     0.0400500000    6.5730000000  -10.6660000000   37.3730000000    0.0307610000   -0.0311270000    1.0032950000    0.1670000000    0.0530000000    0.0760000000      29.8         -1.7552930160   -1.7770185724   60.3193042509 
   2.7     0.0400500000    6.5330000000  -10.6800000000   37.2530000000    0.0302730000   -0.0321040000    1.0029290000    0.1520000000    0.0610000000    0.0610000000      30.1         -1.7280400638   -1.8334257289   60.3542647606 
   2.7     0.0400500000    6.6400000000  -10.6530000000   37.2260000000    0.0299070000   -0.0318600000    1.0034170000    0.1750000000    0.0680000000    0.0680000000      29.9         -1.7063448165   -1.8186162492   59.7566927442 
   2.8     0.0400490000    6.6000000000  -10.6660000000   37.3730000000    0.0307610000   -0.0303950000    1.0025630000    0.1900000000    0.0150000000    0.0680000000      30.1         -1.7566118599   -1.7365212469   60.2687607001 
   2.8     0.0400500000    6.5460000000  -10.6530000000   37.3860000000    0.0300290000   -0.0325920000    1.0032950000    0.1670000000    0.0530000000    0.0610000000      30.2         -1.7134693025   -1.8605969281   60.1415243737 
   2.8     0.0400500000    6.5600000000  -10.7060000000   37.2530000000    0.0301510000   -0.0313720000    1.0028070000    0.1520000000    0.0760000000    0.0680000000      30.1         -1.7213290165   -1.7918673682   60.3484012216 
   2.9     0.0400500000    6.6260000000  -10.6260000000   37.3460000000    0.0301510000   -0.0318600000    1.0028070000    0.1830000000    0.0150000000    0.0760000000      29.9         -1.7213026495   -1.8197217563   59.7977155329 
   2.9     0.0400500000    6.5860000000  -10.6260000000   37.4800000000    0.0303950000   -0.0317380000    1.0026850000    0.1450000000    0.0680000000    0.0760000000      29.9         -1.7354414567   -1.8129786565   60.0407870675 
   3.0     0.0400500000    6.5600000000  -10.6800000000   37.3860000000    0.0302730000   -0.0318600000    1.0029290000    0.1900000000    0.0680000000    0.0760000000      29.9         -1.7280534484   -1.8195005474   60.2619986425 
   3.0     0.0400500000    6.6530000000  -10.6260000000   37.3330000000    0.0299070000   -0.0325920000    1.0032950000    0.1750000000    0.0150000000    0.0830000000      30.0         -1.7065120480   -1.8605969281   59.5602053756 
   3.0     0.0400490000    6.6130000000  -10.6260000000   37.5060000000    0.0300290000   -0.0316160000    1.0028070000    0.1600000000    0.0610000000    0.0680000000      30.1         -1.7143550875   -1.8057946690   59.8681107352 
   3.1     0.0400500000    6.5730000000  -10.6260000000   37.5460000000    0.0302730000   -0.0324700000    1.0024410000    0.1750000000    0.0380000000    0.0610000000      30.1         -1.7288596250   -1.8552151651   60.0112443222 
   3.1     0.0400500000    6.5330000000  -10.6660000000   37.4660000000    0.0308830000   -0.0323480000    1.0032950000    0.1600000000    0.0610000000    0.0910000000      30.1         -1.7621825040   -1.8466772506   60.4105291883 
   3.2     0.0400500000    6.6400000000  -10.5860000000   37.5460000000    0.0301510000   -0.0318600000    1.0026850000    0.1900000000    0.0220000000    0.0760000000      29.9         -1.7215117490   -1.8199430189   59.6386989495 
   3.2     0.0400500000    6.5600000000  -10.6130000000   37.7330000000    0.0306390000   -0.0317380000    1.0021970000    0.1670000000    0.0760000000    0.0760000000      30.1         -1.7502147632   -1.8138608610   60.1828728663 
   3.2     0.0400500000    6.5730000000  -10.6400000000   37.6660000000    0.0306390000   -0.0319820000    1.0030510000    0.1600000000    0.0610000000    0.0680000000      30.1         -1.7487135523   -1.8262411648   60.1647114404 
   3.3     0.0400500000    6.6660000000  -10.5860000000   37.6000000000    0.0296630000   -0.0317380000    1.0026850000    0.1750000000    0.0450000000    0.0680000000      30.1         -1.6936716217   -1.8129786565   59.4518319570 
   3.3     0.0400490000    6.6260000000  -10.5730000000   37.7060000000    0.0306390000   -0.0314940000    1.0026850000    0.1520000000    0.0530000000    0.0830000000      30.2         -1.7493777286   -1.7990497711   59.7971316964 
   3.4     0.0400500000    6.5460000000  -10.6000000000   37.8000000000    0.0306390000   -0.0314940000    1.0026850000    0.1900000000    0.0380000000    0.0830000000      30.1         -1.7493777286   -1.7990497711   60.2396466463 
   3.4     0.0400490000    6.5460000000  -10.6400000000   37.6800000000    0.0305170000   -0.0312500000    1.0020750000    0.2210000000    0.0530000000    0.0530000000      29.9         -1.7434885082   -1.7862066379   60.3414046226 
   3.4     0.0400500000    6.6530000000  -10.5730000000   37.6400000000    0.0303950000   -0.0312500000    1.0041500000    0.2590000000    0.1370000000    0.0610000000      29.9         -1.7329399862   -1.7825179608   59.6495955046 
   3.5     0.0400500000    6.5860000000  -10.5730000000   37.7600000000    0.0303950000   -0.0313720000    1.0030510000    0.1520000000    0.0150000000    0.1060000000      29.9         -1.7348291194   -1.7914317665   59.9516314710 
   3.5     0.0400500000    6.5600000000  -10.6130000000   37.7860000000    0.0306390000   -0.0314940000    1.0025630000    0.1600000000    0.0150000000    0.0610000000      29.9         -1.7495902650   -1.7992685501   60.2090987543 
   3.6     0.0400500000    6.6660000000  -10.5860000000   37.5860000000    0.0296630000   -0.0319820000    1.0029290000    0.1750000000    0.0830000000    0.0910000000      29.7         -1.6932471591   -1.8264631651   59.4263234228 
   3.6     0.0400490000    6.6000000000  -10.5730000000   37.6400000000    0.0306390000   -0.0310050000    1.0029290000    0.2210000000    0.0380000000    0.0830000000      30.1         -1.7489793382   -1.7707036556   59.9598575430 
   3.6     0.0400500000    6.5460000000  -10.5860000000   37.8000000000    0.0299070000   -0.0317380000    1.0026850000    0.1450000000    0.0760000000    0.1060000000      29.9         -1.7075951023   -1.8129786565   60.0505838412 
   3.7     0.0400490000    6.5460000000  -10.6260000000   37.7200000000    0.0305170000   -0.0316160000    1.0026850000    0.1450000000    0.0220000000    0.0760000000      30.1         -1.7424096046   -1.8060142405   60.2699737035 
   3.7     0.0400500000    6.6530000000  -10.5460000000   37.6000000000    0.0307610000   -0.0329580000    1.0036620000    0.1600000000    0.0450000000    0.0680000000      29.9         -1.7545501673   -1.8807885437   59.4686988886 
   3.8     0.0400500000    6.5860000000  -10.5730000000   37.7060000000    0.0308830000   -0.0312500000    1.0026850000    0.1670000000    0.0450000000    0.0760000000      29.9         -1.7633139028   -1.7851206729   60.0464415532 
   3.8     0.0400500000    6.5460000000  -10.6000000000   37.8000000000    0.0310050000   -0.0314940000    1.0026850000    0.1600000000    0.0300000000    0.0760000000      30.1         -1.7702618061   -1.7990497711   60.3037539818 
   3.8     0.0400500000    6.6530000000  -10.6000000000   37.5860000000    0.0305170000   -0.0314940000    1.0028070000    0.1750000000    0.0450000000    0.0910000000      30.1         -1.7422046254   -1.7988310452   59.7180728779 
   3.9     0.0400500000    6.6400000000  -10.5600000000   37.6400000000    0.0395500000   -0.0329580000    0.9954830000   -0.4420000000    1.3810000000   -0.1290000000      29.9         -2.2738891549   -1.8962300781   61.1490449305 
   3.9     0.0400500000    6.5330000000  -10.6130000000   37.7860000000    0.0356440000   -0.0753170000    1.0092770000   -6.0450000000   10.2290000000  -34.3050000000      29.8         -2.0170344923   -4.2677702795   56.3414801992 
   4.0     0.0400490000    6.7730000000  -10.4260000000   37.7600000000    0.0307610000   -0.0374750000    0.9892570000    0.9310000000   -6.0300000000  -26.7780000000      30.1         -1.7797657436   -2.1694394195   58.1444289728 
   4.0     0.0400500000    6.9060000000  -10.4930000000   37.5860000000   -0.0093990000    0.0063470000    1.0238030000   -6.0150000000    7.9080000000   -5.0000000000      30.1          0.5259777085    0.3551969020   55.9431519015 
   4.0     0.0400500000    6.9330000000  -10.4130000000   37.6800000000    0.0203850000   -0.0428460000    1.0036620000    4.8090000000   -8.2210000000    0.2360000000      29.9         -1.1624944728   -2.4444537346   55.0023026898 
   4.1     0.0400500000    6.9330000000  -10.4400000000   37.7860000000    0.0341790000   -0.0256340000    0.9975580000    0.3120000000   -1.0680000000    6.8320000000      30.1         -1.9616916488   -1.4719914667   59.2718996124 
   4.1     0.0400490000    7.1330000000  -10.2930000000   37.6260000000    0.0187980000    0.0095210000    1.0012200000    7.2670000000   -2.9840000000    6.9840000000      30.1         -1.0755586766    0.5448319793   58.8895333085 
   4.2     0.0400500000    6.9330000000  -10.2660000000   37.6660000000   -0.0030510000   -0.0357660000    1.0084220000    5.5410000000   -1.0610000000   15.8240000000      30.1          0.1732400182   -2.0312748349   51.7009630811 
   4.2     0.0400500000    6.9460000000  -10.1860000000   37.8530000000    0.0953360000   -0.0789790000    0.9923090000   -0.0070000000    4.0990000000   -3.2440000000      30.1         -5.4706485807   -4.5506432643   65.6247371592 
   4.2     0.0400490000    6.7200000000  -10.2130000000   37.8930000000    0.0476070000   -0.0465080000    0.9976800000   -6.3510000000   15.3050000000  -40.7550000000      29.9         -2.7289917921   -2.6689764538   59.9175926189 
   4.3     0.0400500000    7.2530000000   -9.7200000000   37.7600000000    0.0388180000   -0.0609130000    1.0135490000   -3.7700000000   12.2360000000 -103.3510000000      30.2         -2.1893575898   -3.4392664167   52.1203018382 
   4.3     0.0400490000    8.2660000000   -8.7060000000   37.8800000000    0.0352780000   -0.0566400000    1.0039060000   -2.0610000000   -0.7250000000 -125.0610000000      29.9         -2.0093949896   -3.2291829442   43.4730060080 
   4.4     0.0400500000    8.8660000000   -7.8400000000   38.1060000000   -0.0377190000   -0.0037840000    1.0052490000  -10.7780000000   24.4960000000 -125.0610000000      30.1          2.1488316310   -0.2156741321   36.7959121782 
   4.4     0.0400610000    9.4130000000   -6.9730000000   38.1200000000    0.0091550000   -0.0433340000    1.0003660000   -1.0830000000    6.0300000000 -125.0610000000      30.1         -0.5238450813   -2.4803962362   30.4013412416 
   4.4     0.0400380000   10.1860000000   -5.6930000000   38.0260000000   -0.0152580000   -0.0373530000    1.0045160000   -0.8390000000    5.0000000000 -125.0610000000      30.1          0.8696209333   -2.1295665222   21.6642639929 
   4.5     0.0400500000   10.6930000000   -4.4660000000   38.2000000000    0.0152580000   -0.0380850000    0.9984130000   -0.2670000000    5.0610000000 -125.0610000000      30.2         -0.8749042406   -2.1845191348   16.5679140583 
   4.5     0.0400500000   11.0400000000   -3.4930000000   38.3460000000   -0.0118400000   -0.0186760000    1.0089110000   -0.6640000000    4.8160000000 -107.0300000000      30.1          0.6722443394   -1.0604838107   13.6142195804 
   4.6     0.0400500000   11.3730000000   -2.3860000000   38.1860000000   -0.0159910000   -0.0585930000    0.9986570000   -1.2590000000    3.8620000000 -116.6790000000      30.1          0.9157959093   -3.3577968932    0.6947456999 
   4.6     0.0400490000   11.5060000000   -1.4930000000   38.2130000000   -0.0084220000   -0.0195310000    1.0054930000    1.4730000000    2.8470000000  -78.9080000000      30.1          0.4798071891   -1.1127906030    3.6317657134 
   4.6     0.0400500000   11.5200000000   -1.0930000000   38.3860000000    0.0052490000   -0.0404050000    1.0050040000    0.3810000000    1.6410000000  -38.0910000000      30.3         -0.2990038431   -2.3022693232  357.7239335595 
   4.7     0.0400500000   11.6000000000   -0.9330000000   38.4260000000    0.0174560000   -0.0330810000    1.0021970000    0.2510000000    0.8320000000  -24.7400000000      29.9         -0.9973186405   -1.8905601865  358.2432816505 
   4.7     0.0400500000   11.6000000000   -0.6800000000   38.2260000000   -0.0103750000   -0.0549310000    1.0023190000    0.8010000000   -0.9160000000  -13.4960000000      29.9          0.5921586723   -3.1368947184  353.2820235926 
   4.8     0.0400500000   11.6000000000   -0.6130000000   38.2930000000    0.0061030000   -0.0360100000    1.0037840000    0.3120000000   -0.0530000000   -0.2360000000      30.1         -0.3481297261   -2.0545621443  356.1737075907 
   4.8     0.0400500000   11.5860000000   -0.6400000000   38.4260000000    0.0064690000   -0.0366210000    1.0029290000    0.4730000000    0.0070000000    0.4190000000      30.1         -0.3693127109   -2.0911719383  356.1521788852 
   4.8     0.0400500000   11.6000000000   -0.6930000000   38.2130000000    0.0023190000   -0.0358880000    1.0041500000    0.6640000000   -0.2290000000    0.9690000000      29.8         -0.1322351240   -2.0468616382  356.6577052987 
   4.9     0.0400490000   11.6130000000   -0.7200000000   38.2400000000   -0.0059810000   -0.0305170000    1.0030510000    0.2440000000    0.3890000000   12.3660000000      30.1          0.3414816508   -1.7426393234  357.8563375580 
   4.9     0.0400500000   11.5600000000   -1.2400000000   38.3730000000   -0.0135490000   -0.0295410000    1.0034170000    0.4650000000   -2.1600000000   63.4730000000      30.1          0.7732749166   -1.6863237028    0.5229624558 
   5.0     0.0400500000   11.4000000000   -2.0660000000   38.4000000000   -0.0225830000   -0.0441890000    1.0064690000    0.3740000000   -3.5340000000   94.6790000000      30.0          1.2841417233   -2.5139554685    1.7739985473 
   5.0     0.0400500000   11.1730000000   -3.0930000000   38.0930000000    0.0140380000   -0.0528560000    1.0009760000    0.2290000000   -3.0070000000   94.2440000000      30.1         -0.8023635354   -3.0226655688    5.7976273586 
   5.0     0.0400500000   11.0530000000   -3.7330000000   38.1200000000    0.0179440000   -0.0349120000    1.0031730000    0.8700000000   -4.3740000000   76.4580000000      29.9         -1.0241344234   -1.9931789256   13.0591147301 
   5.1     0.0400500000   10.7730000000   -4.5600000000   38.2260000000    0.0006100000   -0.0506590000    1.0020750000    0.9460000000   -5.5800000000   99.8540000000      30.1         -0.0348335653   -2.8940727819   13.7185435971 
   5.1     0.0400500000   10.4260000000   -5.4930000000   37.9460000000    0.0018310000   -0.0275870000    1.0069580000    0.5340000000   -2.6410000000   83.8930000000      30.1         -0.1041444715   -1.5693041785   23.2599494571 
   5.2     0.0400490000    9.9860000000   -6.3860000000   37.9600000000   -0.0136710000   -0.0437010000    0.9990230000    1.3890000000   -4.6560000000  117.9310000000      29.9          0.7832587523   -2.5047347453   24.1945791833 
   5.2     0.0400500000    9.4400000000   -7.1730000000   38.0130000000    0.0051260000   -0.0428460000    1.0056150000    0.5640000000   -2.7320000000  102.0380000000      29.9         -0.2917910044   -2.4397121148   30.9701796777 
   5.2     0.0400500000    8.7330000000   -8.1200000000   38.0930000000   -0.0114740000   -0.0186760000    1.0074460000    1.2290000000   -4.8240000000  125.0640000000      30.1          0.6524125692   -1.0620255838   38.9569677147 
   5.3     0.0400500000    7.7860000000   -9.2400000000   37.7600000000    0.0098870000   -0.0493160000    1.0015860000    1.6870000000   -4.8540000000  125.0640000000      29.9         -0.5648836972   -2.8188478518   44.8547437152 
   5.3     0.0400500000    7.0800000000   -9.8400000000   37.8000000000    0.0229490000   -0.0509030000    0.9996330000    0.9610000000   -2.9230000000   95.5720000000      29.9         -1.3134313949   -2.9150799443   51.8860749327 
   5.4     0.0400500000    6.2530000000  -10.4530000000   37.8800000000   -0.0018310000   -0.0346670000    1.0021970000    1.4650000000   -4.3580000000  117.9080000000      29.9          0.1046159074   -1.9811286005   55.3175667217 
   5.4     0.0400500000    5.3860000000  -11.0930000000   37.6400000000    0.0197750000   -0.0413810000    1.0072020000    1.1220000000   -3.7930000000  102.2970000000      29.9         -1.1238299770   -2.3526799534   64.0671517672 
   5.4     0.0400490000    4.5730000000  -11.5200000000   37.6530000000    0.0003660000   -0.0131830000    1.0010980000    1.0990000000   -2.5870000000  112.8930000000      29.9         -0.0209454383   -0.7544582100   67.5300952384 
   5.5     0.0400500000    3.6130000000  -11.9330000000   37.6530000000    0.0050040000   -0.0698240000    1.0070800000    3.1520000000   -9.4120000000  123.1370000000      29.8         -0.2840083192   -3.9661481691   69.7950630996 
   5.5     0.0400500000    2.6000000000  -12.2800000000   37.7860000000   -0.0225830000    0.0316160000    1.0079340000    1.6640000000   -4.7250000000  125.0640000000      30.3          1.2828800227    1.7966152722   75.6770976316 
   5.6     0.0400500000    1.2000000000  -12.5330000000   37.5330000000   -0.0006100000   -0.0859370000    0.9965820000    9.2900000000  -20.3580000000  125.0640000000      30.1          0.0349406243   -4.9285228740   82.4751742856 
   5.6     0.0400500000    0.1860000000  -12.5600000000   37.5730000000    0.0239250000   -0.0191650000    1.0070800000    5.1370000000   -7.8700000000  125.0640000000      30.1         -1.3606622255   -1.0902223130   93.4393997938 
   5.6     0.0400500000   -1.3460000000  -12.4800000000   37.7330000000   -0.0019530000    0.0032950000    1.0124510000   10.2900000000  -15.2130000000  125.0640000000      30.0          0.1105218188    0.1864672236   95.7691804014 
   5.7     0.0400500000   -2.1600000000  -11.9600000000   37.6800000000    0.0611570000   -0.1108390000    0.9908440000   12.7400000000  -20.1600000000  112.0610000000      29.8         -3.5100987859   -6.3827553488  120.4785437809 
   5.7     0.0400490000   -2.6260000000  -11.7600000000   37.7730000000    0.0371090000   -0.0020750000    1.0096430000    6.3430000000   -7.2440000000   83.5030000000      30.1         -2.1049301099   -0.1177530821  108.9559218065 
   5.8     0.0400500000   -3.0000000000  -11.4660000000   37.9060000000    0.0743400000   -0.0725090000    0.9846190000    7.5030000000   -8.4650000000   60.4880000000      29.9         -4.3060967664   -4.2117550096  124.2631521001 
   5.8     0.0400490000   -3.1860000000  -11.4260000000   38.0000000000    0.0439450000   -0.0190420000    1.0048820000    1.8470000000   -1.7400000000   12.4960000000      29.9         -2.5035861944   -1.0855957933  114.3843777082 
   5.8     0.0400500000   -3.2530000000  -11.3460000000   37.8260000000    0.0419920000   -0.0065910000    1.0246580000    1.0450000000   -1.5800000000    9.8620000000      29.9         -2.3467040861   -0.3685437234  113.3895607160 
   5.9     0.0400500000   -2.9200000000  -11.1600000000   37.9330000000    0.0528560000   -0.0256340000    0.9870600000    7.1670000000  -12.7090000000   11.6710000000      30.1         -3.0641685585   -1.4876400178  115.9880110901 
   5.9     0.0400500000   -2.9860000000  -11.1860000000   38.0000000000    0.0561520000   -0.0114740000    1.0036620000   -0.1600000000    0.8010000000    0.1220000000      29.9         -3.2019868892   -0.6549845830  115.4260160428 
   6.0     0.0400490000   -3.0260000000  -11.1600000000   38.1460000000    0.0570060000   -0.0098870000    1.0023190000    0.6180000000   -0.8700000000    0.1900000000      30.1         -3.2549816548   -0.5651544069  115.7154191374 
   6.0     0.0400500000   -2.9060000000  -11.1200000000   37.9330000000    0.0581050000   -0.0096430000    1.0026850000    0.6940000000   -1.0220000000   -0.0680000000      30.1         -3.3163942084   -0.5510067161  115.3779373369 
   6.0     0.0400500000   -2.9330000000  -11.1460000000   37.9600000000    0.0606680000   -0.0080560000    0.9978020000   -0.9840000000    2.2670000000    0.1520000000      29.9         -3.4792809871   -0.4625815250  115.7863852499 
   6.1     0.0400490000   -3.0400000000  -11.2000000000   38.0660000000    0.0544430000   -0.0108640000    1.0054930000   -0.0530000000    0.6560000000    0.1060000000      29.9         -3.0991061733   -0.6190367593  115.3019303629 
   6.1     0.0400500000   -3.0000000000  -11.1460000000   37.8800000000    0.0574950000   -0.0107420000    1.0010980000    0.1220000000    0.1830000000    0.1670000000      29.8         -3.2868081579   -0.6147726235  115.7230473893 
   6.2     0.0400500000   -3.0130000000  -11.2130000000   37.9330000000    0.0566400000   -0.0111080000    1.0007320000   -1.4350000000    3.3050000000    0.2210000000      30.1         -3.2392039804   -0.6359498674  115.5488554841 
   6.2     0.0400500000   -3.1330000000  -11.2660000000   37.9730000000    0.0533440000   -0.0135490000    1.0036620000   -1.0000000000    2.4730000000    0.0220000000      29.9         -3.0420951557   -0.7734210965  115.5999892999 
   6.2     0.0400500000   -3.2530000000  -11.3060000000   38.0660000000    0.0528560000   -0.0124510000    0.9982910000   -2.5340000000    4.6870000000   -4.6640000000      30.0         -3.0305449179   -0.7145739698  115.9397189323 
   6.3     0.0400500000   -3.2800000000  -11.3600000000   37.7730000000    0.0748290000   -0.0438230000    1.0147700000   -1.8160000000    2.0910000000  -16.4350000000      29.9         -4.2134369512   -2.4727906810  122.0265943176 
   6.3     0.0400500000   -2.7330000000  -11.5600000000   37.8130000000    0.0430900000   -0.0090330000    0.9926750000   -4.0070000000    3.1750000000  -59.8770000000      30.1         -2.4854299868   -0.5213574352  111.3087558674 
   6.4     0.0400490000   -2.2930000000  -11.6800000000   37.9200000000    0.0601800000   -0.0292960000    0.9915770000   -3.8090000000    2.2290000000  -71.5490000000      29.9         -3.4715784933   -1.6923032853  113.5702437951 
   6.4     0.0400500000   -1.3600000000  -12.0130000000   37.6800000000    0.0385740000   -0.0161130000    1.0058590000   -8.5340000000    9.3960000000 -109.0610000000      30.1         -2.1958960405   -0.9177508363  103.8373510409 
   6.4     0.0400500000   -1.2660000000  -12.2260000000   37.6660000000    0.0292960000   -0.0295410000    1.0185540000   -7.3660000000   11.5640000000  -47.9080000000      29.9         -1.6468145822   -1.6612769501  101.9613153388 
   6.5     0.0400500000   -0.7060000000  -12.3060000000   37.6400000000    0.0355220000   -0.0207510000    0.9901120000   -5.7630000000    8.7170000000  -74.8470000000      29.9         -2.0542543276   -1.2006426406  100.1610776692 
   6.5     0.0400500000   -0.6400000000  -12.5730000000   37.7200000000    0.0260000000   -0.0386960000    1.0053710000   -9.1750000000   17.2130000000  -66.3660000000      29.9         -1.4803061055   -2.2041849483   98.3241611184 
   6.6     0.0400500000    0.2530000000  -12.6400000000   37.4660000000    0.0250240000   -0.1147460000    0.9926750000   -5.6870000000   10.6710000000 -116.2820000000      30.1         -1.4344958110   -6.5937110436   94.9516652600 
   6.6     0.0400500000    0.7600000000  -12.7060000000   37.4800000000   -0.0375970000    0.0513910000    1.0180660000   -6.9920000000   15.9610000000  -77.4960000000      30.1          2.1122750070    2.8897834117   81.7437023637 
   6.6     0.0400490000    1.2400000000  -12.6400000000   37.5600000000    0.0385740000   -0.1137690000    1.0034170000   -1.8010000000    5.0530000000  -93.4800000000      30.1         -2.1875150215   -6.4686610846   91.6493302899 
   6.7     0.0400500000    2.1730000000  -12.4660000000   37.4400000000   -0.0496820000    0.0379630000    1.0062250000   -1.3430000000    4.0760000000  -82.7780000000      30.1          2.8246567896    2.1606385522   73.9460476597 
   6.7     0.0400500000    2.4130000000  -12.4400000000   37.4930000000   -0.0112300000   -0.0242910000    1.0034170000    0.0000000000   -0.0220000000  -12.3200000000      30.1          0.6410259238   -1.3867614335   76.1823391475 
   6.8     0.0400500000    2.5060000000  -12.3730000000   37.5330000000    0.0086660000   -0.0423580000    1.0031730000    0.2440000000   -0.0450000000   -9.7700000000      30.1         -0.4945018248   -2.4178221185   78.5774686548 
   6.8     0.0400500000    2.5460000000  -12.3460000000   37.6530000000   -0.0029290000   -0.0372310000    1.0026850000   -0.0610000000    0.7930000000  -14.3050000000      30.1          0.1672542147   -2.1264899897   76.3484864674 
   6.8     0.0400500000    2.6530000000  -12.3330000000   37.4800000000    0.0051260000   -0.0400390000    1.0030510000    0.2970000000    0.2820000000  -10.4580000000      29.9         -0.2925692786   -2.2858742347   77.2045387850 
   6.9     0.0400500000    2.7860000000  -12.2530000000   37.5600000000    0.0069580000   -0.0390620000    1.0029290000    0.3740000000    0.7320000000  -10.7930000000      29.9         -0.3971922451   -2.2304241738   76.8324046904 
   6.9     0.0400490000    2.9200000000  -12.1860000000   37.6000000000   -0.0021970000   -0.0397940000    1.0120840000    4.6640000000   -7.5870000000   -7.9310000000      30.1          0.1242796451   -2.2516454999   74.3244375366 
   7.0     0.0400500000    3.6000000000  -11.8000000000   37.5600000000    0.0233150000   -0.0339350000    1.0167230000   15.2290000000  -23.7860000000  -10.2130000000      29.8         -1.3129180243   -1.9116423607   75.4798529259 
   7.0     0.0400500000    4.2000000000  -10.7060000000   37.8930000000    0.0362540000   -0.0104980000    1.0439450000   45.7250000000  -24.8620000000   -6.0910000000      30.1         -1.9888613361   -0.5761518273   74.4201566301 
   7.0     0.0400500000    5.4400000000   -8.6800000000   38.3330000000    0.0511470000    0.0447990000    1.0174560000   79.0220000000  -49.3810000000  -15.9230000000      30.1         -2.8750266340    2.5211280150   71.1732567878 
   7.1     0.0400500000    5.7860000000   -6.6930000000   38.7860000000    0.0817870000    0.0799560000    0.9801020000   77.1670000000   -7.4650000000   -9.5190000000      29.9         -4.7544124785    4.6638196514   75.1382969843 
   7.1     0.0400500000    5.9330000000   -4.2530000000   39.0130000000    0.0850830000    0.1247550000    0.9859610000   85.0680000000   -5.1980000000  -10.7480000000      29.9         -4.8932676951    7.2113914029   73.7606165717 
   7.2     0.0400500000    5.9200000000   -2.2660000000   39.2930000000    0.0743400000    0.1937250000    0.9893790000   79.4040000000   -0.6100000000   11.9160000000      29.9         -4.2172325139   11.0786159893   72.4012619375 
   7.2     0.0400490000    5.7330000000    0.1600000000   39.4660000000    0.0822750000    0.2462150000    0.9907220000  105.1980000000    1.9230000000   20.8770000000      30.1         -4.6077333944   13.9564479290   74.2851497784 
   7.2     0.0400500000    5.4000000000    4.1730000000   39.2000000000    0.0518790000    0.3865960000    0.9567870000  125.0640000000    2.9160000000   23.6480000000      29.9         -2.8780264297   22.0014908193   72.1182642181 
   7.3     0.0400500000    5.0660000000    9.2130000000   38.5860000000    0.1099850000    0.4458000000    0.8123770000  125.0640000000   17.0830000000   52.7780000000      29.9         -6.7687716592   28.7562185851   87.1539787122 
   7.3     0.0400500000    5.0260000000    9.8400000000   38.5060000000    0.1517330000    0.4925530000    0.7966300000    4.4190000000   -3.0300000000  -10.2060000000      29.8         -9.2021571294   31.7283286109   95.3078180804 
   7.4     0.0400500000    5.1060000000    9.2800000000   38.6530000000    0.0848380000    0.5240470000    0.8737790000  -23.9610000000   -6.6180000000  -14.6480000000      29.9         -4.7598102140   30.9531287647   80.7497321445 
   7.4     0.0400500000    5.0800000000    9.0130000000   38.5860000000    0.0924070000    0.5136710000    0.8489990000   -4.9840000000    0.4580000000   -0.4580000000      29.9         -5.3202770687   31.1752525585   82.7300813241 
   7.4     0.0400500000    5.0800000000    8.6130000000   38.7460000000    0.0959470000    0.4962150000    0.8699950000  -14.8540000000    3.6790000000    4.3280000000      30.1         -5.4721018475   29.6989372557   82.9902875699 
   7.5     0.0400500000    4.9860000000    8.7330000000   38.7200000000    0.1035150000    0.4818110000    0.8852530000    4.8850000000    5.6250000000   -3.4040000000      30.1         -5.8640619290   28.5578444600   84.4214810999 
   7.5     0.0400610000    4.6260000000    9.0930000000   38.7730000000    0.0917960000    0.5031730000    0.8557120000   11.4650000000   10.2130000000  -10.4650000000      29.9         -5.2832482863   30.4562418485   84.6599087171 
   7.6     0.0400390000    4.2530000000    9.1200000000   38.6930000000    0.0722650000    0.5091550000    0.8625480000    3.0070000000    8.9460000000  -15.0220000000      29.8         -4.1266627475   30.5530045301   82.7144549917 
   7.6     0.0400500000    4.1200000000    9.2400000000   38.7200000000    0.0749510000    0.5058590000    0.8583980000   -1.2820000000    2.5800000000  -20.2290000000      29.9         -4.3019466528   30.5110955560   83.8803733163 
   7.6     0.0400500000    4.0260000000    9.2000000000   38.7730000000    0.0690910000    0.5017080000    0.8609610000  -11.2970000000   -4.4120000000  -30.8160000000      30.1         -3.9662738610   30.2306481443   83.2057119068 
   7.7     0.0400500000    4.0400000000    8.4930000000   38.7330000000    0.0556640000    0.4942620000    0.8604730000  -28.7170000000  -13.6940000000  -60.2970000000      30.1         -3.2106152034   29.8733754248   80.8758655739 
   7.7     0.0400500000    4.2400000000    8.2400000000   38.8800000000    0.0496820000    0.4619140000    0.8956290000  -22.3280000000  -17.1370000000  -67.8010000000      30.1         -2.8224538945   27.2820844701   77.3961573264 
   7.8     0.0400500000    4.4530000000    8.2000000000   38.8530000000    0.0520010000    0.4493400000    0.8767080000  -25.4420000000  -26.4040000000 -118.4420000000      29.8         -3.0215408526   27.1365448504   76.8928630050 
   7.8     0.0400610000    4.0800000000    8.3060000000   38.9730000000   -0.0035400000    0.4283440000    0.9138180000  -14.3740000000   -4.6870000000 -125.0610000000      30.1          0.2009715858   25.1144140110   64.9487816534 
   7.9     0.0400390000    4.3860000000    8.7330000000   38.6800000000   -0.0532220000    0.4694820000    0.9245600000    1.9080000000  -44.8320000000 -117.3510000000      30.1          2.9382131876   26.9209888462   56.8573388514 
   7.9     0.0400500000    5.4260000000    9.5730000000   38.4260000000   -0.0018310000    0.4221190000    0.8881830000    0.8620000000  -64.9160000000 -121.6870000000      30.1          0.1066805451   25.4199318003   54.9856132306 
   7.9     0.0400500000    6.3460000000   10.4130000000   38.0930000000   -0.0979000000    0.4603270000    0.9313960000   15.9840000000  -60.7020000000 -109.2970000000      30.1          5.3831158024   26.3001199027   37.1521965762 
   8.0     0.0400500000    7.0000000000   12.3600000000   37.2800000000   -0.0679930000    0.4892570000    0.8701170000   48.0380000000  -47.8930000000  -91.1520000000      30.1          3.8965758812   29.3485581712   37.9808272559 
   8.0     0.0400500000    7.4930000000   14.1060000000   36.6660000000   -0.0144040000    0.4907220000    0.8750000000   45.6870000000  -45.3050000000  -80.0680000000      30.1          0.8225900517   29.2848042387   34.9762195454 
   8.0     0.0400500000    7.7600000000   15.5060000000   36.1460000000   -0.0375970000    0.5136710000    0.8653560000   41.0610000000  -32.1830000000  -52.7700000000      30.3          2.1396055368   30.6931563027   29.0526716352 
   8.1     0.0400500000    8.1060000000   17.0530000000   35.4260000000   -0.0189200000    0.5181880000    0.8524160000   38.0910000000  -41.3960000000  -62.7480000000      29.9          1.0865541804   31.2956296559   23.4118263630 
   8.1     0.0400490000    8.3730000000   18.2930000000   34.5860000000   -0.0791010000    0.5764160000    0.8100580000   33.0680000000  -41.3740000000  -60.1670000000      30.1          4.5489747115   35.4346558697   24.2573657928 
   8.2     0.0400500000    8.4930000000   18.8260000000   34.3730000000   -0.0372310000    0.5488280000    0.8417960000   14.9770000000  -15.0530000000  -21.0450000000      30.1          2.1217979713   33.1032522831   16.8172513994 
   8.2     0.0400500000    8.5860000000   19.4660000000   34.0260000000   -0.0341790000    0.5775140000    0.8210440000   14.9690000000  -18.8160000000  -26.4120000000      30.1          1.9501250855   35.1221637101   20.2419973096 
   8.2     0.0400500000    8.7060000000   19.6800000000   33.7200000000   -0.0408930000    0.5850830000    0.8054190000    3.7860000000  -18.6940000000  -25.5260000000      30.1          2.3522630522   35.9958951970   20.7313604463 
   8.3     0.0400500000    8.7860000000   19.7460000000   33.7330000000   -0.0432120000    0.5927730000    0.8082270000   -7.0450000000  -15.0220000000  -20.7020000000      30.1          2.4686483937   36.2572120711   21.0723689915 
   8.3     0.0400500000    8.8400000000   19.7460000000   33.8000000000   -0.0364990000    0.5811760000    0.8232420000   -5.0680000000   -5.2210000000   -7.5720000000      29.9          2.0743180343   35.2205657917   18.1666882656 
   8.4     0.0400500000    8.8530000000   19.8530000000   33.8000000000   -0.0319820000    0.5776360000    0.8197020000   -2.4270000000   -2.8320000000   -3.1750000000      29.9          1.8267280261   35.1719794596   17.8039784043 
   8.4     0.0400490000    8.8400000000   19.5060000000   33.8000000000   -0.0344230000    0.5803220000    0.8165280000   -6.2670000000   -0.4120000000   -0.4270000000      29.8          1.9680839747   35.4021331586   19.9006559572 
   8.5     0.0400500000    8.8400000000   19.4000000000   33.9330000000   -0.0310050000    0.5682370000    0.8326410000   -4.6790000000    1.6940000000    2.3350000000      30.1          1.7616970674   34.3116360189   17.1885168280 
   8.5     0.0400490000    8.8800000000   19.4660000000   33.9730000000   -0.0364990000    0.5753170000    0.8215330000    1.0610000000    4.9310000000    7.5030000000      30.1          2.0841705878   35.0034348479   18.9946808842 
   8.5     0.0400500000    8.8130000000   18.9330000000   34.0660000000   -0.0410150000    0.5742180000    0.8193350000   -9.9230000000   11.8850000000   17.4420000000      29.9          2.3474554995   35.0240860782   21.2739671576 
   8.6     0.0400500000    8.7200000000   18.3600000000   34.4930000000   -0.0687250000    0.5822750000    0.8284910000  -12.6480000000   26.6180000000   49.5720000000      29.9          3.8825448561   35.1000820669   23.0215281876 
   8.6     0.0400500000    8.8400000000   17.6800000000   34.8660000000   -0.0183100000    0.5415030000    0.8394770000   -6.0990000000   35.6480000000   72.0990000000      29.8          1.0500466249   32.8239601622   22.9392364651 
   8.7     0.0400500000    8.9600000000   17.0800000000   35.1460000000   -0.0538330000    0.5675040000    0.8483880000   -7.0680000000   25.5030000000   82.9610000000      29.9          3.0190620976   33.7793699622   25.9411247764 
   8.7     0.0400500000    9.2130000000   15.6530000000   35.5200000000   -0.0140380000    0.5356440000    0.8448480000    1.6640000000   51.4190000000  125.0640000000      30.1          0.8039909901   32.3751988886   30.7442236666 
   8.7     0.0400500000    9.6930000000   14.5200000000   35.8930000000   -0.0063470000    0.5618890000    0.8461910000    2.6790000000   38.0610000000  125.0640000000      29.9          0.3580110736   33.5850145891   38.0032549646 
   8.8     0.0400490000   10.6800000000   12.9200000000   36.2800000000    0.0773920000    0.5081780000    0.8221430000   -9.6640000000   36.9610000000  125.0640000000      30.1         -4.5780605236   31.7207865715   46.6200634658 
   8.8     0.0400500000    9.2000000000   10.7730000000   37.0800000000    0.0605460000    0.5103750000    0.8626700000  -12.4800000000   94.9840000000  125.0640000000      29.9         -3.4567372252   30.6095148573   54.2066315280 
   8.9     0.0400500000    8.2000000000   10.1860000000   37.5730000000    0.1398920000    0.4973140000    0.8819580000   13.4120000000   66.1520000000  110.4580000000      29.9         -7.8664080098   29.4175611018   72.8403927056 
   8.9     0.0400500000    7.1330000000   10.3200000000   37.8130000000    0.1184080000    0.5317380000    0.8542480000   41.2900000000   73.3350000000  124.5340000000      30.1         -6.7114549254   31.9007468823   76.4945688500 
   8.9     0.0400500000    6.1460000000   10.4400000000   37.9730000000    0.1323240000    0.5042720000    0.8461910000   26.4350000000   64.1980000000  102.7630000000      30.1         -7.6508477626   30.7920523850   84.3449421136 
   9.0     0.0400500000    4.7860000000   10.7200000000   37.8930000000    0.0812980000    0.5781250000    0.8527830000   46.7250000000   70.7170000000  112.6790000000      29.9         -4.5118037174   34.1344226282   81.5951171696 
   9.0     0.0400500000    3.7600000000   12.6260000000   37.5460000000    0.1274410000    0.5603020000    0.8150630000   94.8850000000   67.9690000000  117.7700000000      30.1         -7.3420450202   34.5059542094   95.9837327498 
   9.1     0.0400490000    2.9200000000   13.2660000000   37.5060000000    0.1219480000    0.5935050000    0.7744140000   31.3280000000   67.9920000000   94.1750000000      29.8         -7.1242715199   37.4662810076   98.3142470228 
   9.1     0.0400500000    1.7200000000   13.6260000000   37.2400000000    0.1053460000    0.6318350000    0.7899160000   31.6330000000   68.1670000000   98.4420000000      29.9         -5.9456760167   38.6554824887   99.8146751800 
   9.1     0.0400500000    1.3600000000   14.1330000000   37.2130000000    0.1236570000    0.6369620000    0.7802730000   26.6940000000   47.6410000000   97.9920000000      30.1         -6.9990259256   39.2258701437  104.4884932855 
   9.2     0.0400500000    1.0400000000   14.5600000000   37.1730000000    0.1629630000    0.5865470000    0.7860100000   23.6030000000   44.8090000000   89.3660000000      30.1         -9.4342677901   36.7315331596  116.5798351709 
   9.2     0.0400500000    0.7730000000   14.8930000000   37.0800000000    0.1865230000    0.5775140000    0.7888180000   16.4960000000   30.9690000000   50.4800000000      29.9        -10.8017252664   36.2088201212  123.3067605475 
   9.3     0.0400500000    0.4400000000   15.2260000000   36.7200000000    0.1614990000    0.6383050000    0.7622070000   16.8240000000   11.9770000000   20.1290000000      29.8         -9.2267890040   39.9442580706  115.3820622642 
   9.3     0.0400500000    0.4260000000   15.4530000000   36.8130000000    0.1690670000    0.6370840000    0.7548820000    9.3740000000   12.3280000000   26.0380000000      30.0         -9.7124828389   40.1627519596  116.7219699157 
   9.3     0.0400490000    0.4660000000   15.6930000000   36.7860000000    0.1816400000    0.6156000000    0.7640380000    9.1220000000    1.3660000000    0.8390000000      30.1        -10.4880722390   38.8590561988  121.0894398899 
   9.4     0.0400490000    0.5200000000   15.8260000000   36.7730000000    0.1566160000    0.6617430000    0.7412100000    0.6030000000   -0.1980000000    4.5190000000      29.9         -8.9572899641   41.7580783808  113.0537477504 
   9.4     0.0400510000    0.3730000000   15.7200000000   36.6660000000    0.1818840000    0.6223140000    0.7579340000   -0.7090000000    0.2440000000   -3.1220000000      30.1        -10.5070713723   39.3882616231  120.7711038913 
   9.5     0.0400500000    0.3200000000   15.8930000000   36.7330000000    0.1551510000    0.6572260000    0.7489010000    4.2060000000   -0.5950000000  -12.0070000000      30.1         -8.8506041184   41.2697770212  114.2930485452 
   9.5     0.0400500000    0.3200000000   15.9200000000   36.7460000000    0.1619870000    0.6442870000    0.7525630000   -0.4880000000    1.5110000000   -5.8390000000      30.1         -9.2862623765   40.5676147288  116.3986193382 
   9.5     0.0400500000    0.0260000000   15.8660000000   36.5460000000    0.1561270000    0.6496580000    0.7452390000    0.9460000000   -0.7860000000  -12.7930000000      29.9         -8.9739689925   41.0801113196  116.0689566332 
   9.6     0.0400500000   -0.0000000000   15.6930000000   36.7600000000    0.1552730000    0.6409910000    0.7524410000   -9.8770000000    0.0760000000  -13.6710000000      29.9         -8.9274710801   40.4270821888  116.4712740958 
   9.6     0.0400490000    0.0130000000   15.5600000000   36.9060000000    0.1383050000    0.6486810000    0.7630610000   -6.9310000000   -3.7780000000  -15.3200000000      30.1         -7.8625112105   40.3679866822  113.3935884614 
   9.7     0.0400500000   -0.0000000000   15.4530000000   36.9730000000    0.1578360000    0.6268310000    0.7637930000   -8.5110000000   -6.7930000000  -21.4350000000      30.1         -9.0757809071   39.3751023937  117.7456866201 
   9.7     0.0400490000   -0.1600000000   14.9860000000   37.0000000000    0.1293940000    0.6456290000    0.7521970000  -16.2210000000   -5.4800000000  -20.8540000000      29.9         -7.4368943595   40.6402957416  111.6665099049 
   9.7     0.0400500000   -0.1200000000   14.4660000000   37.3330000000    0.1147460000    0.6383050000    0.7774650000  -22.7090000000  -10.6870000000  -33.5640000000      29.9         -6.5076089109   39.3862699269  109.5004755458 
   9.8     0.0400500000    0.1600000000   14.2400000000   37.4260000000    0.1881100000    0.5432120000    0.8160400000  -12.6480000000  -29.1830000000  -45.3430000000      29.8        -10.8623911000   33.6504497244  129.0242248402 
   9.8     0.0400500000    0.5330000000   13.4400000000   37.4530000000    0.0640860000    0.6860350000    0.7510980000  -31.5720000000  -38.5190000000  -66.0220000000      30.1         -3.6048370968   42.4078310478   96.6087901509 
   9.9     0.0400500000    1.2530000000   12.7460000000   37.8130000000    0.1843260000    0.5330810000    0.8520500000  -36.2440000000  -51.1980000000  -65.2740000000      30.1        -10.3923473937   32.0319590362  121.9525623788 
   9.9     0.0400500000    2.2130000000   11.3860000000   38.2930000000    0.0236810000    0.6607660000    0.7265620000  -70.4190000000  -41.9080000000  -59.4960000000      29.9         -1.3812951726   42.2847009030   85.5655292261 
   9.9     0.0400500000    2.8260000000    9.4130000000   38.7460000000    0.1970210000    0.4302970000    0.8588860000 -102.7700000000  -47.2740000000  -88.9770000000      30.1        -11.5901960798   26.6106089179  119.4073252802 
  10.0     0.0400490000    3.5860000000    6.0930000000   39.0400000000   -0.0068350000    0.5616450000    0.8702390000 -111.2130000000  -25.7700000000  -55.7020000000      30.2          0.3780971069   32.8378610897   76.5986612730 
  10.0     0.0400500000    4.1730000000    3.9860000000   39.3200000000    0.1336660000    0.3526610000    0.9072260000  -99.2510000000  -24.6710000000  -66.7320000000      30.1         -7.8192009625   21.2423250525   95.6842662463 
  10.1     0.0400500000    4.5460000000    1.6260000000   39.5060000000    0.0415030000    0.3853750000    0.9010000000 -102.1140000000   -4.6560000000  -22.6790000000      30.1         -2.4251345050   23.1573256599   78.0258032249 
  10.1     0.0400500000    4.3860000000   -3.4660000000   39.0130000000    0.1358640000    0.1640620000    0.9768060000 -125.0610000000    8.7090000000   -1.7480000000      30.1         -7.8104492652    9.5342735738   94.6588788127 
  10.1     0.0400500000    4.7600000000   -5.6930000000   38.7730000000    0.0573730000    0.2519530000    1.0085440000  -91.4270000000   -2.8240000000  -41.2900000000      29.9         -3.1589956794   14.0264582958   79.5353938669 
  10.2     0.0400500000    4.8400000000   -8.1460000000   38.3460000000    0.0660400000    0.0461420000    0.9492180000 -109.6330000000    6.5490000000   -6.4650000000      30.1         -3.9751508203    2.7829881354   77.5870535877 
  10.2     0.0400500000    4.6260000000  -11.2530000000   37.5730000000    0.0989990000    0.0466300000    1.0869140000 -104.5870000000   26.7170000000  -10.9160000000      29.9         -5.1995345857    2.4565558081   84.4507268212 
  10.3     0.0400490000    3.9730000000  -11.6930000000   37.2400000000    0.0512690000   -0.0413810000    1.0078120000  -13.0610000000   24.7780000000  -28.2130000000      30.1         -2.9097694055   -2.3512575417   78.5619727658 
  10.3     0.0400500000    3.3730000000  -12.0530000000   37.3460000000    0.0133050000    0.0009760000    1.0122070000  -16.1290000000   35.2740000000  -18.5190000000      29.9         -0.7530832056    0.0552462722   76.5910260262 
  10.3     0.0400500000    3.2000000000  -12.1060000000   37.4260000000    0.0130610000   -0.0339350000    1.0136710000   -1.9160000000    5.4350000000    0.2290000000      30.1         -0.7377934702   -1.9173937180   75.9581877114 
  10.4     0.0400500000    3.0130000000  -12.1860000000   37.1600000000    0.0174560000   -0.0322260000    1.0026850000   -0.7630000000    2.4800000000   -0.0300000000      30.1         -0.9968615250   -1.8408357827   77.8781957374 
  10.4     0.0400500000    2.9730000000  -12.1860000000   37.2130000000    0.0172110000   -0.0339350000    1.0014640000   -0.9610000000    2.7700000000    0.0910000000      30.1         -0.9840145110   -1.9407473623   77.9703212716 
  10.5     0.0400500000    2.8530000000  -12.2260000000   37.3730000000    0.0113520000   -0.0555410000    1.0047600000   -1.8700000000    5.8160000000   -0.3120000000      30.2         -0.6463261726   -3.1639690377   76.5600096744 
  10.5     0.0400500000    2.9460000000  -12.2260000000   37.4400000000    0.0069580000   -0.0155020000    1.0065910000    0.4420000000   -0.7170000000   -2.6180000000      30.1         -0.3960003799   -0.8823136352   77.0152440340 
  10.5     0.0400490000    2.8400000000  -12.2660000000   37.1060000000    0.0123290000   -0.0378410000    1.0028070000   -0.3660000000    1.1750000000   -1.8770000000      29.9         -0.7038859475   -2.1610353520   77.6438748104 
  10.6     0.0400500000    2.7060000000  -12.3330000000   37.2800000000    0.0150140000   -0.0717770000    0.9948730000   -4.1980000000    9.7550000000    2.7250000000      29.9         -0.8623652450   -4.1265627955   77.4979170153 
  10.6     0.0400500000    2.4400000000  -12.3860000000   37.3460000000   -0.0006100000   -0.0114740000    1.0118400000   -0.2290000000    6.2060000000    4.2670000000      30.1          0.0345392299   -0.6496912531   78.3668933947 
  10.7     0.0400500000    2.2530000000  -12.4130000000   37.1200000000   -0.0186760000   -0.0213620000    1.0256340000   -1.0300000000   17.8850000000  -23.0760000000      30.1          1.0429702854   -1.1931892865   75.8548264364 
  10.7     0.0400500000    0.6400000000  -12.4400000000   37.1060000000   -0.0078120000   -0.0529780000    1.0272210000   -1.1980000000   87.9840000000  -29.2970000000      29.9          0.4351468129   -2.9523625446   84.9644505488 
  10.7     0.0400500000   -1.5330000000  -12.7330000000   37.0530000000   -0.1231680000   -0.0673820000    0.9919430000   -9.3430000000   95.9540000000   -6.5870000000      30.1          7.0619890842   -3.8860925842   72.9306572455 
  10.8     0.0400500000   -4.0000000000  -12.6660000000   36.8800000000   -0.1773680000   -0.0571280000    0.9930410000   11.0760000000  124.0220000000  -26.1060000000      30.1         10.1104954052   -3.2925020787   75.8533183519 
  10.8     0.0400490000   -6.6400000000  -13.2930000000   35.8660000000   -0.2443840000   -0.0639640000    0.9715570000  -19.2060000000   97.6790000000  -31.3200000000      29.8         14.0898939419   -3.7667227962   77.1670406449 
  10.9     0.0400500000   -8.0530000000  -14.0930000000   35.3060000000   -0.3194580000   -0.0687250000    0.9156490000  -31.5340000000   54.1520000000   -1.2440000000      30.1         19.1832143480   -4.2923469595   69.3106904962 
  10.9     0.0400490000   -8.6930000000  -14.3860000000   35.1200000000   -0.3316650000   -0.0701900000    0.9433590000   -9.6100000000   31.7170000000    2.4420000000      29.8         19.3211573670   -4.2552136935   72.3408215037 
  10.9     0.0400500000   -9.4930000000  -14.3860000000   34.9600000000   -0.3623040000   -0.0671380000    0.9218750000    2.2210000000   29.7320000000   -0.4420000000      29.9         21.4036709079   -4.1653638146   70.1307151150 
  11.0     0.0400510000   -9.7060000000  -14.5060000000   34.5860000000   -0.3840330000   -0.0854490000    0.9245600000   -1.1290000000    7.5640000000   -7.0450000000      29.9         22.4702661890   -5.2803478554   67.3297032829 
  11.0     0.0400500000   -9.8000000000  -14.3860000000   34.7460000000   -0.3707270000   -0.0883780000    0.9201660000    9.8090000000   11.5030000000  -12.4800000000      30.1         21.8530509587   -5.4861857052   68.6894937778 
  11.1     0.0400500000   -9.9460000000  -14.2000000000   34.8400000000   -0.3648680000   -0.0947260000    0.9340820000    1.3120000000    0.8390000000   13.2740000000      30.1         21.2372937121   -5.7906142928   70.2791338891 
  11.1     0.0400500000  -10.1060000000  -14.1460000000   34.6530000000   -0.4086910000   -0.0876460000    0.9117430000    8.0830000000    5.5260000000   -5.0150000000      29.9         24.0462139325   -5.4909798406   63.4546058004 
  11.1     0.0400500000  -10.4400000000  -13.9200000000   34.6260000000   -0.3887930000   -0.0736080000    0.9267570000   14.8320000000   24.5340000000  -14.2130000000      30.1         22.6948219166   -4.5412041853   69.7350832836 
  11.2     0.0400490000  -10.8930000000  -13.7330000000   34.7330000000   -0.4029540000   -0.0682370000    0.9241940000   14.7400000000   28.6100000000  -23.6480000000      29.8         23.5004763670   -4.2227181009   69.2218517660 
  11.2     0.0400500000  -11.4930000000  -13.4000000000   34.6530000000   -0.4174800000   -0.0599360000    0.9155270000   29.5640000000   51.5870000000  -44.2210000000      29.9         24.4667514534   -3.7455874888   69.1837009370 
  11.3     0.0400500000  -12.3730000000  -13.0260000000   34.2260000000   -0.4649650000   -0.0214840000    0.8730460000   37.3740000000   50.4800000000  -49.7930000000      30.1         28.0315833160   -1.4096555601   66.4487331035 
  11.3     0.0400500000  -12.9200000000  -11.9730000000   34.6130000000   -0.3922110000   -0.0872800000    0.9263910000   65.5260000000   43.0830000000  -55.3120000000      29.9         22.8558416759   -5.3822387243   77.5462980152 
  11.3     0.0400500000  -12.8530000000  -11.0800000000   35.0800000000   -0.5079340000   -0.0168450000    0.8619380000   58.5030000000   15.7250000000  -61.0150000000      30.1         30.5057610478   -1.1195985783   56.6477951039 
  11.4     0.0400500000  -12.8000000000   -9.6260000000   35.3860000000   -0.4884030000   -0.0367430000    0.8917230000   76.4960000000   17.8160000000  -60.7400000000      29.7         28.6893622882   -2.3595091949   53.9754892103 
  11.4     0.0400500000  -12.7730000000   -8.3330000000   35.7460000000   -0.5231930000    0.0028070000    0.8665770000   78.6710000000   19.8160000000  -89.8770000000      30.1         31.1212081210    0.1855907676   48.3035212937 
  11.5     0.0400490000  -12.4930000000   -7.0000000000   36.3060000000   -0.5701900000    0.0488280000    0.8305660000   80.5190000000   11.6870000000  -89.2060000000      29.9         34.4237957958    3.3644791530   42.4998375560 
  11.5     0.0400500000  -12.3060000000   -5.7200000000   36.6930000000   -0.4694820000   -0.0058590000    0.8941650000   74.2900000000    6.6480000000  -91.7250000000      30.1         27.7012458099   -0.3754241867   41.5676314942 
  11.5     0.0400500000  -12.1200000000   -4.2000000000   36.7330000000   -0.5738520000    0.0504150000    0.8459470000   79.7780000000   10.1900000000  -69.3280000000      29.9         34.1040151692    3.4105614690   31.5583789359 
  11.6     0.0400500000  -12.3200000000   -2.5600000000   36.9460000000   -0.5582270000    0.0313720000    0.8104240000   79.7170000000   13.1520000000  -69.5190000000      29.9         34.5393666930    2.2168471714   20.3898760038 
  11.6     0.0400500000  -12.4130000000   -1.1860000000   37.1460000000   -0.6187740000    0.1054680000    0.7988280000   74.1750000000   10.8320000000  -78.0450000000      29.9         37.5220299695    7.5211708712   25.7997546705 
  11.7     0.0400500000  -12.7200000000    0.0130000000   36.8930000000   -0.5672600000    0.0587150000    0.8135980000   67.0610000000   17.1220000000  -77.4880000000      29.9         34.8153459321    4.1277137621   14.0414473556 
  11.7     0.0400500000  -13.0000000000    0.8930000000   36.7600000000   -0.6044920000    0.0888670000    0.7949210000   51.1140000000    8.3350000000  -64.2670000000      30.1         37.0796184720    6.3788099882   15.2628207735 
  11.7     0.0400490000  -13.0530000000    1.5060000000   36.8530000000   -0.6251220000    0.0925290000    0.7784420000   31.1600000000    0.8010000000  -39.7090000000      30.1         38.5698709773    6.7786203764   12.6464792758 
  11.8     0.0400500000  -13.0800000000    1.7060000000   36.9460000000   -0.5971670000    0.0891110000    0.7985830000   10.5800000000   -6.9000000000  -18.5870000000      30.1         36.6186526023    6.3670901432   11.7802952105 
  11.8     0.0400500000  -12.6530000000    1.7060000000   36.8930000000   -0.6174310000    0.0970450000    0.7908930000    7.0610000000  -11.3050000000   -9.7780000000      29.9         37.7708287911    6.9954002770   12.5723687977 
  11.9     0.0400500000  -12.6000000000    1.6800000000   36.9460000000   -0.5842280000    0.0809320000    0.8099360000   -4.2740000000   -2.3580000000    0.6410000000      29.9         35.6689597748    5.7062785971   10.0478850018 
  11.9     0.0400500000  -12.4400000000    1.4930000000   37.1330000000   -0.6090080000    0.0882560000    0.7954100000   -9.4190000000   -6.9310000000   -0.3660000000      29.9         37.2705140809    6.3314474926   11.7532190334 
  11.9     0.0400500000  -12.3060000000    1.0260000000   37.1200000000   -0.5856930000    0.0880120000    0.8157950000  -13.5640000000   -2.4190000000   11.8090000000      29.9         35.5192231754    6.1575362912   14.4541091211 
  12.0     0.0400500000  -12.2660000000    0.8660000000   37.0130000000   -0.5955810000    0.0789790000    0.8070060000  -13.5640000000   -0.9770000000   20.7550000000      29.9         36.2974304676    5.5895478618   12.9071158639 
  12.0     0.0400500000  -12.3330000000    0.4260000000   37.1060000000   -0.5993650000    0.0743400000    0.7946770000  -24.2290000000    1.3740000000   15.4500000000      30.1         36.9045717494    5.3443201821   13.7970072593 
  12.1     0.0400500000  -12.5460000000   -0.2130000000   37.1200000000   -0.6010740000    0.0838620000    0.8051750000  -36.7170000000   10.1980000000   20.4880000000      29.8         36.5937773736    5.9461312324   18.7920931523 
  12.1     0.0400490000  -12.9330000000   -2.0130000000   36.6930000000   -0.6114500000    0.0368650000    0.7929680000  -85.9840000000   13.8390000000   92.6560000000      30.1         37.6055662948    2.6617583168   17.1153736753 
  12.1     0.0400500000  -13.5730000000   -3.4930000000   36.2660000000   -0.5928950000    0.0462640000    0.8184810000  -97.5410000000   14.2590000000  119.9310000000      30.1         35.8755872846    3.2351567408   28.7067042577 
  12.2     0.0400500000  -14.0930000000   -5.0530000000   35.9460000000   -0.6180410000    0.0247800000    0.7832030000 -107.5640000000    0.1600000000  124.7480000000      29.8         38.2637322116    1.8121942110   29.1679950337 
  12.2     0.0400500000  -14.7330000000   -6.7730000000   35.3330000000   -0.5601800000    0.0551750000    0.8427730000  -92.7320000000    7.0530000000  116.3960000000      30.2         33.5549955496    3.7457176020   52.4659916794 
  12.3     0.0400500000  -15.5060000000   -7.7600000000   34.6130000000   -0.5815420000    0.0203850000    0.8125000000  -82.5490000000    7.6640000000  104.4120000000      29.9         35.5844340662    1.4372055259   49.3301015618 
  12.3     0.0400500000  -16.0000000000   -8.7600000000   34.1860000000   -0.5600580000    0.0303950000    0.8381340000  -80.6870000000   -2.9160000000   89.6640000000      30.1         33.7342519735    2.0769260878   61.2159672522 
  12.3     0.0400500000  -16.6130000000   -9.6660000000   33.7600000000   -0.6051020000    0.0148920000    0.8081050000  -73.8240000000    2.4800000000   81.5410000000      29.9         36.8208831923    1.0557442162   56.4404719064 
  12.4     0.0400490000  -17.5860000000  -10.7730000000   32.7730000000   -0.5683590000    0.0111080000    0.8334960000  -86.0990000000   12.8700000000   91.8240000000      30.1         34.2876187213    0.7635355702   71.0426003566 
  12.4     0.0400500000  -18.3860000000  -12.1730000000   31.6660000000   -0.6000970000    0.0019530000    0.8135980000 -125.0610000000   -8.8240000000  117.8470000000      30.1         36.4118189599    0.1375352969   71.9889992843 
  12.5     0.0400500000  -18.9330000000  -12.7330000000   31.2660000000   -0.5996090000   -0.0217280000    0.7985830000  -63.3810000000   -5.2970000000   75.8850000000      30.1         36.8905520239   -1.5585300891   72.1402161791 
  12.5     0.0400490000  -19.5600000000  -13.2130000000   30.7460000000   -0.6135250000   -0.0114740000    0.7957760000  -79.5260000000   -2.3740000000   84.4880000000      30.1         37.6285174403   -0.8260694239   75.1110746827 
  12.5     0.0400510000  -20.4930000000  -13.9730000000   29.5600000000   -0.5971670000   -0.0303950000    0.8018790000  -92.4500000000   -9.3580000000  106.2510000000      30.2         36.6557085176   -2.1707413342   83.2921323778 
  12.6     0.0400500000  -21.3600000000  -13.7460000000   29.0530000000   -0.5937500000   -0.0661620000    0.8220210000  -33.6100000000   12.3350000000   71.4500000000      29.8         35.7530137446   -4.6016454925   88.8385813301 
  12.6     0.0400500000  -22.1060000000  -13.8530000000   28.5600000000   -0.6115720000   -0.0073240000    0.7976070000  -69.3200000000   -2.0910000000   82.2440000000      30.1         37.4783293403   -0.5261018215   90.3736938923 
  12.7     0.0400490000  -23.1460000000  -13.5860000000   27.8130000000   -0.5820310000   -0.0874020000    0.8132320000  -38.4960000000    6.4880000000   71.2740000000      30.1         35.4357705675   -6.1343097002  100.6614164371 
  12.7     0.0400500000  -24.2000000000  -13.1600000000   27.0130000000   -0.6517330000    0.0045160000    0.7257080000  -35.5110000000   19.9690000000   73.3120000000      30.1         41.9253513397    0.3565406478   90.0481387477 
  12.7     0.0400500000  -24.7200000000  -13.0800000000   26.7600000000   -0.5980220000   -0.0329580000    0.8100580000  -32.3740000000    2.8850000000   42.9160000000      30.1         36.4138077354   -2.3298496815  107.1869331824 
  12.8     0.0400500000  -25.0130000000  -13.0930000000   26.6130000000   -0.5891110000   -0.0465080000    0.8127440000  -14.7320000000    4.0380000000   13.1670000000      29.9         35.8916864119   -3.2750894043  110.1940669509 
  12.8     0.0400500000  -25.0000000000  -13.0000000000   26.5330000000   -0.6069330000   -0.0443110000    0.8024900000    6.7020000000   -3.3050000000   -3.7930000000      29.8         37.0587122410   -3.1604852093  107.1453519163 
  12.9     0.0400500000  -24.9860000000  -13.0260000000   26.4930000000   -0.6199950000   -0.0187980000    0.7924800000   -1.9460000000   -1.7700000000    3.1220000000      29.9         38.0299514820   -1.3588281440  104.3635139245 
  12.9     0.0400500000  -25.0800000000  -13.0000000000   26.5860000000   -0.6243890000   -0.0153800000    0.7904050000   12.8160000000    9.8390000000  -11.5490000000      30.1         38.3020791233   -1.1147423121  103.7321233575 
  12.9     0.0400500000  -25.1060000000  -13.0130000000   26.5330000000   -0.6226800000   -0.0184320000    0.7894280000   12.2290000000   11.3740000000  -15.2440000000      30.1         38.2578540833   -1.3375304175  104.0520145837 
  13.0     0.0400500000  -25.5060000000  -12.8530000000   26.0660000000   -0.6259760000   -0.0184320000    0.7877190000   19.7930000000   28.4880000000   -9.2670000000      29.9         38.4654452046   -1.3404312063  106.2779080222 
  13.0     0.0400500000  -25.8400000000  -12.6400000000   25.9460000000   -0.6990960000   -0.0197750000    0.7988280000   31.3120000000   23.5410000000  -16.0070000000      29.9         41.1821629283   -1.4180683223  100.2213591870 
  13.1     0.0400500000  -25.6800000000  -12.7600000000   26.1200000000   -0.6848140000   -0.0590820000    0.8750000000    0.1370000000   -2.9540000000  -17.4880000000      29.9         37.9850854352   -3.8628784938  108.5047578241 
  13.1     0.0400500000  -25.2000000000  -13.0400000000   26.0800000000   -0.7088620000    0.0305170000    0.7646480000   13.5260000000   -1.8930000000  -21.5030000000      30.1         42.8091285542    2.2854540345   94.5993720001 
  13.1     0.0400500000  -25.0930000000  -13.0260000000   25.9730000000   -0.6759030000   -0.0070800000    0.8074950000   10.8700000000    1.7700000000  -11.8160000000      30.1         39.9294866791   -0.5023482802  101.0485994973 
  13.2     0.0400500000  -24.8400000000  -13.1060000000   26.0800000000   -0.6810300000   -0.0052490000    0.8016350000    2.8010000000   -4.7860000000   -5.6030000000      29.9         40.3489997061   -0.3751598279   98.7481607014 
  13.2     0.0400490000  -24.3600000000  -13.2000000000   26.1860000000   -0.6333000000   -0.0571280000    0.7122800000    7.5800000000   -7.4730000000  -12.3960000000      30.1         41.5496287595   -4.5855586493   91.1280592453 
  13.3     0.0400500000  -24.2660000000  -12.9860000000   26.1060000000   -0.6118160000    0.0584710000    0.6761470000   15.7170000000   -0.0450000000   -0.6710000000      29.8         42.0344064390    4.9424574140   95.1080860265 
  13.3     0.0400500000  -24.2400000000  -12.8530000000   26.0930000000   -0.5999750000   -0.0533440000    0.6827390000    7.4800000000    0.9690000000   -1.3510000000      29.9         41.2218095222   -4.4675774213   92.2854838576 
  13.3     0.0400500000  -24.2530000000  -12.6800000000   26.3200000000   -0.6180410000    0.0062250000    0.7645260000   18.8010000000    2.0760000000   -6.3350000000      29.9         38.9510633848    0.4665091126  100.4597250777 
  13.4     0.0400500000  -24.0800000000  -12.2660000000   26.6930000000   -0.6356200000   -0.0137930000    0.7775870000   31.2060000000   -4.6870000000   -9.3810000000      30.1         39.2590483516   -1.0162178853   97.8132194768 
  13.4     0.0400500000  -23.8800000000  -11.7600000000   26.9860000000   -0.6397700000    0.0400390000    0.7225340000   44.1520000000   -6.1290000000  -18.0380000000      29.9         41.4797935849    3.1717840770   92.0539925867 
  13.5     0.0400500000  -23.4530000000  -10.8660000000   27.9200000000   -0.6328120000    0.0687250000    0.8186030000   79.8470000000  -17.2900000000  -31.2130000000      29.9         37.6081020454    4.7989564603   99.3000430843 
  13.5     0.0400490000  -23.2660000000   -9.0000000000   28.9060000000   -0.6701660000    0.0445550000    0.7069090000   89.0450000000   -5.3050000000    1.4880000000      29.9         43.4148958661    3.6064629602   76.7777319460 
  13.5     0.0400500000  -23.4260000000   -6.5460000000   29.4530000000   -0.6353750000    0.2114250000    0.8933100000  118.0300000000   -6.2210000000   19.4800000000      30.1         34.6885857525   13.3155170145  106.1487775861 
  13.6     0.0400500000  -23.1600000000   -3.5330000000   30.1600000000   -0.6533200000    0.1550290000    0.7403560000  125.0640000000  -22.8320000000   16.7090000000      29.9         40.8174273212   11.8267350475   82.3489737200 
  13.6     0.0400500000  -22.8130000000   -1.4260000000   30.7860000000   -0.5938720000    0.3316650000    0.7830810000   97.6560000000  -22.5570000000   13.0380000000      29.9         34.9276086699   22.9545310258  101.8375954721 
  13.7     0.0400500000  -22.1330000000    1.4660000000   31.3330000000   -0.6036370000    0.3280020000    0.7264400000  113.5950000000  -32.8010000000   17.3660000000      29.9         37.1378111374   24.3001155090   90.1936647440 
  13.7     0.0400500000  -21.6930000000    3.5860000000   31.4130000000   -0.5593260000    0.4160150000    0.7353510000   87.2820000000  -26.4040000000   16.5340000000      30.1         33.5055207037   29.4984312490   99.2960231220 
  13.7     0.0400500000  -20.9600000000    5.9060000000   31.5600000000   -0.5598140000    0.4520260000    0.7138670000   88.6480000000  -30.9540000000   40.2900000000      29.9         33.5262325076   32.3423010204   94.8098393194 
  13.8     0.0400500000  -20.2260000000    8.4800000000   31.6260000000   -0.5142820000    0.5056150000    0.6394040000   87.8700000000  -28.1750000000   43.1670000000      30.1         32.2477400585   38.3355314008   94.6868721182 
  13.8     0.0400500000  -19.4660000000   10.7730000000   31.3730000000   -0.4930410000    0.5587150000    0.6635740000   76.6710000000  -21.3050000000   43.8160000000      30.1         29.6126395874   40.0966557023   97.7858434713 
  13.9     0.0400500000  -18.8530000000   12.5060000000   31.1060000000   -0.4567870000    0.5699460000    0.6130370000   49.4730000000  -19.1600000000   38.9920000000      30.1         28.6217604491   42.9138826592   97.3814788048 
  13.9     0.0400500000  -18.1460000000   13.8260000000   31.1060000000   -0.4333490000    0.7197260000    0.6335440000   43.2060000000  -20.9160000000   38.0300000000      30.1         24.3205426134   48.6439185028  104.9569700213 
  13.9     0.0400500000  -17.4130000000   15.3330000000   30.8800000000   -0.4438470000    0.6059570000    0.5604240000   46.7320000000  -15.3050000000   36.8160000000      30.1         28.2689634510   47.2355685531   90.3489119988 
  14.0     0.0400500000  -16.9600000000   16.1730000000   30.6530000000   -0.3830560000    0.7178950000    0.5826410000   28.0680000000  -14.2970000000   18.7780000000      29.9         22.5044119137   50.9373400888  104.2983913827 
  14.0     0.0400500000  -16.6530000000   16.8800000000   30.5060000000   -0.3836660000    0.7083740000    0.6072990000   17.6250000000   -4.5720000000   21.2820000000      29.9         22.3519743895   49.3930506483  103.7435896009 
  14.1     0.0400490000  -16.4530000000   17.1730000000   30.5200000000   -0.3718260000    0.6979980000    0.5444330000    2.0070000000    1.3580000000    8.4580000000      30.1         22.7843320114   52.0460467603  101.1277402375 
  14.1     0.0400500000  -16.8000000000   16.8130000000   30.5200000000   -0.3500970000    0.7429190000    0.6290280000   -9.6560000000   11.6640000000    1.9770000000      29.9         19.7808982544   49.7454788941  111.0856800354 
  14.1     0.0400490000  -17.0130000000   16.7200000000   30.4000000000   -0.3793940000    0.7180170000    0.6018060000   -7.6410000000   10.2820000000   -1.7250000000      30.0         22.0460066381   50.0319415379  106.1196357812 
  14.2     0.0400500000  -17.2000000000   16.5730000000   30.4660000000   -0.3588860000    0.7475580000    0.6086420000   -7.1670000000    4.9080000000   -5.0680000000      29.8         20.4197943164   50.8484281005  110.5112477437 
  14.2     0.0400500000  -17.3730000000   16.2260000000   30.5460000000   -0.3787840000    0.6951900000    0.6108390000   -8.2510000000    6.3580000000   -1.9080000000      30.1         22.2596623478   48.6953644293  107.3522828785 
  14.3     0.0400500000  -17.4930000000   15.9200000000   30.5460000000   -0.3724360000    0.7114250000    0.6246330000   -3.6100000000   -0.8770000000  -13.8770000000      29.8         21.4743417386   48.7167831931  109.9578493782 
  14.3     0.0400500000  -17.4930000000   15.8530000000   30.5200000000   -0.3703610000    0.6832270000    0.6409910000    5.7860000000  -13.7480000000  -27.1370000000      29.9         21.5703826319   46.8268324743  110.8245343741 
  14.3     0.0400500000  -17.3460000000   15.6530000000   30.8130000000   -0.3784170000    0.6967770000    0.6427000000   -0.6100000000  -21.7250000000  -30.9230000000      29.8         21.7621662589   47.3118741012  108.8034325749 
  14.4     0.0400500000  -16.8930000000   15.2130000000   31.2260000000   -0.3809810000    0.6795650000    0.6573480000   15.7780000000  -45.8620000000  -51.7550000000      29.8         21.9471553848   45.9520613334  106.2894243572 
  14.4     0.0400490000  -16.1200000000   14.9730000000   31.5730000000   -0.4200430000    0.6485590000    0.6224360000   19.6940000000  -64.5410000000  -73.0000000000      30.1         25.0455414600   46.1774451860   93.5774305239 
  14.5     0.0400500000  -15.6000000000   15.2800000000   31.6800000000   -0.4230950000    0.7039790000    0.6163330000   50.2900000000  -56.6790000000  -73.1980000000      29.9         24.3320354573   48.7978818127   93.6534813340 
  14.5     0.0400500000  -14.5730000000   16.1730000000   31.7860000000   -0.3966060000    0.6046140000    0.6768790000   71.0070000000  -84.0300000000  -83.1750000000      29.8         23.6047070822   41.7724373138   87.1547716668 
  14.5     0.0400500000  -13.8930000000   16.5330000000   31.7860000000   -0.4719230000    0.6768790000    0.5213620000   46.9540000000  -64.6250000000  -73.4040000000      29.9         28.9140799608   52.3949527233   76.7653157725 
  14.6     0.0400500000  -13.3730000000   17.3730000000   31.5600000000   -0.4293210000    0.6827390000    0.6573480000   59.2360000000  -58.3050000000  -58.8090000000      29.9         24.3699309465   46.0854691410   79.3219862276 
  14.6     0.0400500000  -12.4660000000   18.4660000000   31.4000000000   -0.4822990000    0.7165520000    0.5422360000   59.5870000000  -76.8390000000  -61.3580000000      30.1         28.2236905358   52.8841342109   70.4280555851 
  14.7     0.0400500000  -11.7330000000   18.8930000000   31.3460000000   -0.4375000000    0.6965330000    0.6159660000   37.4960000000  -54.2290000000  -47.4650000000      29.9         25.1978873202   48.5126611022   68.8161871344 
  14.7     0.0400490000  -10.9730000000   19.0800000000   31.3200000000   -0.4659420000    0.6906730000    0.5799560000   25.3510000000  -65.7480000000  -54.3280000000      29.9         27.3225551154   49.9799230897   62.1030077335 
  14.7     0.0400500000  -10.0800000000   19.7860000000   31.2260000000   -0.4648430000    0.6967770000    0.6121820000   51.3200000000 -106.1750000000  -93.7780000000      30.1         26.6189246985   48.6977515719   56.5001933107 
  14.8     0.0400500000   -8.3330000000   20.2260000000   31.3730000000   -0.4138180000    0.6406250000    0.6058340000   27.7090000000 -104.9380000000  -58.6250000000      29.9         25.1420208381   46.5988171653   48.5464649865 
  14.8     0.0400500000   -7.4800000000   20.3860000000   31.3060000000   -0.4584960000    0.6948240000    0.6072990000   17.0000000000  -47.5340000000  -17.4580000000      30.1         26.4201870242   48.8454746274   47.5243692883 
  14.9     0.0400500000   -6.6260000000   20.9060000000   31.1200000000   -0.3562010000    0.6799310000    0.6966550000   24.0300000000  -49.9770000000    2.2060000000      29.9         20.0980976754   44.3039537828   46.4160449671 
  14.9     0.0400500000   -4.5600000000   22.0130000000   30.7060000000   -0.4248040000    0.6949460000    0.5845940000   50.1290000000 -122.4040000000  -31.0910000000      30.0         25.0691985465   49.9291913383   39.3324470755 
  14.9     0.0400500000   -3.0800000000   22.4660000000   30.4260000000   -0.3004150000    0.6583250000    0.6166990000   17.2510000000  -53.8090000000   -6.0300000000      29.8         18.4194469681   46.8698842669   37.7838201603 
  15.0     0.0400490000   -2.8130000000   22.6660000000   30.0930000000   -0.3308100000    0.7174070000    0.6453850000   18.1750000000  -26.1830000000  -18.7930000000      29.9         18.9224266212   48.0252021077   37.7076166237 
  15.0     0.0400500000   -0.9060000000   23.5730000000   29.5460000000   -0.2971190000    0.6905510000    0.6529540000   33.0610000000 -125.0610000000  -22.1370000000      29.9         17.3610167859   46.6029619301   27.1002216148 
  15.1     0.0400500000    0.7200000000   23.6400000000   29.4930000000   -0.2685540000    0.6916500000    0.6049800000   -3.8090000000  -50.3120000000    5.7170000000      29.9         16.2912863399   48.8241050534   30.8025185702 
  15.1     0.0400500000    0.9460000000   23.4260000000   29.5200000000   -0.2811270000    0.6828610000    0.6546630000   -3.8470000000  -19.2590000000  -15.9080000000      29.8         16.5508927783   46.2077443797   23.8247317168 
  15.1     0.0400500000    1.2530000000   23.5060000000   29.4260000000   -0.1839590000    0.7481680000    0.7399900000   -2.6250000000  -58.4580000000  -26.0220000000      29.9          9.9159994292   45.3148591535   29.7766332150 
  15.2     0.0400500000    3.0400000000   23.9730000000   29.0000000000   -0.2613520000    0.6717520000    0.6230460000    8.9380000000  -86.8700000000  -10.6560000000      30.1         15.9210113488   47.1542611930   20.6598353736 
  15.2     0.0400500000    3.7060000000   23.8800000000   28.9730000000   -0.1558830000    0.6818840000    0.6878660000   -2.7020000000  -27.2740000000   -2.8390000000      30.2          9.1428719978   44.7497782996   19.7044092706 
  15.3     0.0400490000    4.2800000000   23.7730000000   28.9060000000   -0.1925040000    0.7125240000    0.6850580000   -1.0000000000  -22.8470000000    6.4800000000      30.1         11.0208086725   46.1258611874   21.0903511356 
  15.3     0.0400500000    4.3060000000   23.5860000000   29.1730000000   -0.1878660000    0.6813960000    0.6779780000  -18.1060000000    5.0830000000    2.8850000000      30.1         11.0587271046   45.1440637835   19.5649381263 
  15.3     0.0400490000    4.1460000000   23.4660000000   29.4400000000   -0.1625970000    0.6965330000    0.7145990000  -11.8470000000    9.4190000000    3.7090000000      29.9          9.2543745949   44.2665115626   20.3139981699 
  15.4     0.0400500000    4.0000000000   22.8660000000   29.8530000000   -0.1993400000    0.6744380000    0.7061760000  -16.5260000000   18.2970000000   11.1290000000      29.9         11.5376848823   43.6830980830   19.7096732423 
  15.4     0.0400500000    3.7060000000   22.4660000000   30.1330000000   -0.1816400000    0.6968990000    0.7232660000  -15.3510000000   23.0220000000   10.6940000000      30.0         10.2510088361   43.9363600203   24.7027779648 
  15.5     0.0400500000    3.3600000000   22.0930000000   30.6400000000   -0.2135000000    0.6875000000    0.7155760000  -23.8010000000   44.7630000000   35.3280000000      30.1         12.1421867906   43.8536460955   25.4049960466 
  15.5     0.0400500000    2.3730000000   21.0400000000   31.4530000000   -0.2132560000    0.6832270000    0.7374260000  -30.8540000000   79.6870000000   41.3660000000      30.1         11.9768908723   42.8151817059   30.5299364108 
  15.5     0.0400490000    0.9730000000   19.9600000000   32.1730000000   -0.2456050000    0.6412350000    0.7106930000  -38.4120000000   95.6180000000   43.0830000000      30.1         14.3906282061   42.0589008937   33.4230951338 
  15.6     0.0400500000   -0.5860000000   18.6800000000   32.9460000000   -0.2423090000    0.6302490000    0.7493890000  -52.8850000000  121.4120000000   73.5260000000      29.9         13.8992235208   40.0644109709   39.5188827779 
  15.6     0.0400500000   -2.4660000000   17.4000000000   33.5860000000   -0.2829580000    0.6430660000    0.7430410000  -60.6640000000  125.0640000000   87.2290000000      30.1         16.0636293411   40.8746017383   48.4885063662 
  15.7     0.0400500000   -4.8400000000   15.1600000000   34.3460000000   -0.3245840000    0.5980220000    0.7286370000  -78.8850000000  125.0640000000   90.5570000000      29.9         19.0006590825   39.3771175622   54.4433425870 
  15.7     0.0400500000   -6.8660000000   13.5330000000   34.6130000000   -0.3416740000    0.5664060000    0.7529290000  -70.2590000000  116.1520000000   76.9920000000      29.8         19.9326173876   36.9530512136   60.0906477291 
  15.7     0.0400500000   -9.1600000000   12.2530000000   34.4930000000   -0.3536370000    0.5655510000    0.7653800000  -74.5720000000  125.0640000000   88.2510000000      30.1         20.3850972309   36.4612625235   71.2497354051 
  15.8     0.0400500000  -10.9330000000   10.6800000000   34.5730000000   -0.4071040000    0.5476070000    0.7103270000  -70.2130000000   92.9000000000   72.7480000000      30.2         24.4132449926   37.6294348232   72.2203605512 
  15.8     0.0400490000  -13.2930000000    9.2660000000   33.9730000000   -0.4429930000    0.5207510000    0.7095940000  -69.5490000000  125.0640000000   64.5190000000      30.1         26.7162015070   36.2738938497   77.0506965976 
  15.9     0.0400500000  -16.8000000000    8.5460000000   32.5460000000   -0.4719230000    0.5361320000    0.7569580000  -49.1450000000  125.0640000000   56.5110000000      29.9         26.9652885487   35.3088654272   93.3384235290 
  15.9     0.0400500000  -18.2530000000    7.6260000000   31.9860000000   -0.5335690000    0.5050040000    0.6860350000  -79.0150000000   84.7020000000   67.3660000000      30.1         32.0611498985   36.3575231705   87.3008969797 
  15.9     0.0400500000  -21.1730000000    6.6400000000   30.3600000000   -0.5557860000    0.4898680000    0.6993400000  -79.1220000000  125.0640000000   85.2900000000      29.9         33.0610403975   35.0101613836   99.9485827919 
  16.0     0.0400500000  -23.0660000000    6.3860000000   28.9730000000   -0.5694580000    0.4987790000    0.6109610000  -44.1750000000  104.0450000000   58.6480000000      29.9         35.8299427232   39.2276621205  103.4495421752 
  16.0     0.0400500000  -25.0800000000    5.8660000000   27.3200000000   -0.6137690000    0.4818110000    0.6646720000  -82.3890000000  110.8320000000   62.4420000000      29.9         36.7835635939   35.9378061484  112.9561523031 
  16.1     0.0400500000  -26.1730000000    4.9730000000   26.6130000000   -0.6206050000    0.4822990000    0.6400140000  -77.9920000000   57.0450000000   38.4190000000      30.1         37.7544910369   37.0007912833  115.8962664208 
  16.1     0.0400490000  -26.9860000000    3.5600000000   25.9200000000   -0.7027580000    0.3795160000    0.6188960000 -117.4580000000   58.2590000000   33.4120000000      30.2         44.0683441781   31.5172293981  104.5390290752 
  16.1     0.0400500000  -28.0530000000    0.9600000000   24.8930000000   -0.5902090000    0.5073240000    0.6761470000 -125.0610000000   57.0990000000   19.9080000000      29.9         34.9232988904   36.8814881333  128.4990799758 
  16.2     0.0400500000  -28.6800000000    0.6930000000   24.0260000000   -0.6833490000    0.3676750000    0.6601560000  -46.0680000000   36.6640000000   32.5340000000      30.1         42.1240534102   29.1156943063  122.1488708192 
  16.2     0.0400500000  -29.0260000000    0.8000000000   23.8930000000   -0.6809080000    0.3336180000    0.6546630000  -16.2900000000   13.1670000000   21.0220000000      30.1         42.8211924831   27.0035115102  122.9642483654 
  16.3     0.0400500000  -29.3060000000    0.1600000000   23.4130000000   -0.6053460000    0.4667960000    0.6322020000  -62.1140000000   22.7400000000   19.4120000000      30.1         37.6069274423   36.4408722374  130.2510754248 
  16.3     0.0400500000  -29.7330000000    0.2660000000   22.8400000000   -0.6661370000    0.3112790000    0.7070310000  -13.1900000000   18.7020000000   17.6030000000      30.1         40.7708934457   23.7620779337  134.4740497861 
  16.3     0.0400500000  -29.7200000000    0.4530000000   23.0130000000   -0.6634520000    0.3764640000    0.6225580000    8.8930000000    0.5190000000    4.8850000000      30.1         42.3623353241   31.1615676238  126.5265178267 
  16.4     0.0400490000  -29.8130000000    0.8400000000   22.8660000000   -0.6787100000    0.3582760000    0.6584470000   15.8770000000    4.9230000000    8.1980000000      29.8         42.1582679773   28.5516179732  129.3293328033 
  16.4     0.0400500000  -29.8130000000    0.8800000000   22.8800000000   -0.6917720000    0.3486320000    0.6590570000    7.1290000000   -3.4800000000   -5.3890000000      30.1         42.8558254424   27.8782185907  128.2440886209 
  16.5     0.0400500000  -29.8400000000    0.9860000000   22.7200000000   -0.6551510000    0.4182120000    0.6148680000   13.3890000000   -0.0610000000   -1.6480000000      30.1         41.3811702116   34.2221857627  128.7595855555 
  16.5     0.0400500000  -29.7060000000    1.3330000000   23.0000000000   -0.6923820000    0.3508300000    0.6138910000   16.2670000000   -2.6330000000   -0.3660000000      30.1         44.3987905934   29.7473538205  123.5117278887 
  16.5     0.0400500000  -29.8400000000    1.2660000000   22.8530000000   -0.6741940000    0.4029540000    0.6312250000    3.8470000000    5.3890000000   -4.2970000000      29.9         41.9958598084   32.5528685422  128.1876357516 
  16.6     0.0400500000  -29.8930000000    1.3060000000   22.7730000000   -0.6965330000    0.3820800000    0.6337890000    4.3350000000   -1.6410000000   -4.3350000000      30.1         43.2649356243   31.0836939207  126.7303191515 
  16.6     0.0400620000  -29.9060000000    1.2400000000   22.8530000000   -0.6730950000    0.3967280000    0.6136470000   -0.4730000000    4.1600000000   -3.4190000000      30.1         42.6492857625   32.8830115836  126.9122970454 
  16.7     0.0400370000  -29.9330000000    1.2530000000   22.8000000000   -0.6958000000    0.3717040000    0.6182860000    5.8700000000    2.0680000000   -3.2740000000      29.9         43.9644878850   31.0136352903  125.2069297504 
  16.7     0.0400500000  -30.0400000000    1.2260000000   22.7330000000   -0.6823730000    0.4174800000    0.6376950000    7.2820000000   -0.0380000000   -5.2360000000      30.1         41.8371635014   33.2115791567  128.9827517859 
  16.7     0.0400500000  -29.9860000000    1.3730000000   22.6800000000   -0.6815180000    0.3945310000    0.6319580000   20.1830000000   -6.0300000000  -10.0990000000      29.8         42.4519246446   31.9765083614  128.5690598377 
  16.8     0.0400500000  -29.7460000000    1.5460000000   23.1330000000   -0.6850580000    0.3864740000    0.6480710000   37.5640000000  -14.3050000000  -22.1450000000      30.2         42.2360811720   30.8095322889  127.7158667734 
  16.8     0.0400500000  -29.4400000000    1.6930000000   23.5600000000   -0.7017820000    0.4024650000    0.6295160000   58.6410000000  -25.9230000000  -38.7170000000      29.9         43.2056731997   32.5917775868  122.7480244305 
  16.9     0.0400500000  -29.1060000000    1.7730000000   23.8660000000   -0.6791990000    0.4299310000    0.5720210000   46.8240000000  -23.7550000000  -32.4500000000      30.1         43.5060216758   36.9285245287  119.2727639907 
  16.9     0.0400500000  -28.7060000000    2.8530000000   24.2530000000   -0.6936030000    0.4061270000    0.6571040000  125.0640000000  -35.7480000000  -36.9840000000      30.1         41.9204013334   31.7183825750  122.4876778695 
  16.9     0.0400490000  -27.7060000000    4.6800000000   25.3460000000   -0.6391600000    0.4411620000    0.5507810000  124.8470000000  -64.8240000000  -41.8160000000      29.9         42.1682974697   38.6938670436  113.4576097322 
  17.0     0.0400500000  -26.9330000000    4.8400000000   26.1200000000   -0.6861570000    0.4760740000    0.6126700000   83.0300000000  -60.7090000000  -66.0760000000      29.8         41.4877479190   37.8489217114  110.4238644437 
  17.0     0.0400500000  -26.0800000000    5.9060000000   26.6400000000   -0.6867670000    0.5096430000    0.5421140000  101.1520000000  -52.5260000000  -39.5720000000      29.9         42.7070383965   43.2316633034  103.1436629936 
  17.1     0.0400500000  -25.4000000000    7.6530000000   27.0530000000   -0.6536860000    0.5133050000    0.6060790000   83.3200000000  -36.7250000000  -14.1370000000      30.1         39.4555950130   40.2621819827  106.0497914376 
  17.1     0.0400500000  -24.4660000000    8.1730000000   27.7200000000   -0.6248770000    0.5541990000    0.5826410000   49.1830000000  -60.0150000000  -20.1520000000      29.9         37.8506135433   43.5668460951  105.0232330764 
  17.1     0.0400500000  -23.2000000000    8.8800000000   28.5200000000   -0.6243890000    0.4927970000    0.5341790000   66.3120000000  -77.2970000000  -38.9840000000      30.1         40.6667839657   42.6925147863   90.0601600131 
  17.2     0.0400500000  -22.3860000000    9.4400000000   28.8800000000   -0.6392820000    0.5308830000    0.5931390000   48.1520000000  -46.4120000000  -36.9840000000      29.8         38.7678132321   41.8298082710   90.1747784347 
  17.2     0.0400490000  -21.5860000000    9.6530000000   29.5460000000   -0.6043700000    0.5825190000    0.6143790000   32.5950000000  -52.6410000000  -46.8850000000      30.1         35.5211427553   43.4752146194   95.3720414247 
  17.3     0.0400500000  -19.7730000000    9.6930000000   30.7060000000   -0.6169430000    0.5277090000    0.5612790000   45.7170000000 -106.9080000000  -61.8540000000      30.1         38.6881729703   43.2343144312   79.0620361236 
  17.3     0.0400500000  -18.8130000000   10.0660000000   31.0930000000   -0.5596920000    0.4952390000    0.6072990000   35.6480000000  -55.5800000000  -35.9610000000      29.9         35.5356106292   39.1964882508   78.5808553333 
  17.3     0.0400500000  -17.4260000000   10.5600000000   31.8260000000   -0.5842280000    0.5620110000    0.6405020000   29.2060000000  -71.6480000000  -38.1670000000      29.9         34.4353711683   41.2654603028   76.6667950911 
  17.4     0.0400500000  -16.5460000000   10.7060000000   32.1860000000   -0.5604240000    0.5119620000    0.6120600000   12.6100000000  -35.7480000000  -10.3430000000      29.9         35.0815434946   39.9110394027   69.7171163543 
  17.4     0.0400500000  -15.9060000000   11.0000000000   32.3600000000   -0.5584710000    0.5549310000    0.6865230000   22.1900000000  -38.8930000000  -15.9460000000      29.9         32.3192108795   38.9493389104   72.5296776312 
  17.5     0.0400500000  -14.7460000000   11.3730000000   32.7460000000   -0.5500480000    0.5434570000    0.6331780000   22.0000000000  -73.1670000000  -25.0300000000      29.9         33.3927316065   40.6395092634   66.8041742141 
  17.5     0.0400490000  -13.5060000000   11.6400000000   33.2660000000   -0.4907220000    0.5218500000    0.6730950000    7.9160000000  -38.9380000000  -14.5570000000      29.9         29.9493020122   37.7863920829   65.9841915632 
  17.5     0.0400500000  -12.8000000000   12.1600000000   33.3330000000   -0.5255120000    0.5782470000    0.7006830000   28.1060000000  -37.0830000000   -6.4960000000      29.9         30.0474625541   39.5315595887   64.4126204596 
  17.6     0.0400500000  -11.7730000000   12.4530000000   33.5330000000   -0.4567870000    0.5206290000    0.6867670000   14.9690000000  -54.4500000000  -14.4730000000      29.9         27.9252350389   37.1652858467   61.3944949772 
  17.6     0.0400500000  -10.5060000000   13.2000000000   33.7600000000   -0.4808340000    0.5755610000    0.6876220000   28.2290000000  -52.3350000000  -17.9840000000      30.1         28.2010235882   39.9303798895   58.8521522294 
  17.7     0.0400500000   -9.3730000000   14.0130000000   33.7330000000   -0.4190670000    0.5529780000    0.7302240000   38.7020000000  -60.6560000000  -16.0990000000      30.2         24.5845109996   37.1356179088   56.0717628160 
  17.7     0.0400500000   -8.6000000000   14.5200000000   33.6530000000   -0.4185790000    0.5975340000    0.7103270000   32.6330000000  -40.4650000000  -18.4580000000      30.1         24.2726650485   40.0708739761   58.0180841192 
  17.7     0.0400500000   -7.7330000000   15.3200000000   33.4800000000   -0.4091790000    0.5900870000    0.6972650000   33.7250000000  -43.6480000000  -14.4350000000      29.9         24.1300701253   40.2408372464   53.1820057096 
  17.8     0.0400490000   -6.8260000000   16.2800000000   33.3060000000   -0.3848870000    0.6035150000    0.6934810000   37.7700000000  -49.7090000000  -27.4350000000      29.9         22.7173850932   41.0320396767   51.8310296143 
  17.8     0.0400500000   -5.9330000000   17.0000000000   33.0800000000   -0.3803710000    0.5955810000    0.6807860000   34.6640000000  -52.0760000000  -28.0680000000      30.1         22.8074745800   41.1808363681   46.5228240756 
  17.9     0.0400500000   -5.4800000000   17.2400000000   32.9600000000   -0.3560790000    0.5972900000    0.6844480000   14.6330000000  -30.7400000000  -18.0990000000      29.9         21.4040256831   41.1098837832   46.9943937116 
  17.9     0.0400500000   -4.8130000000   18.0930000000   32.7200000000   -0.3688960000    0.6699210000    0.7362060000   30.9770000000  -46.6180000000  -33.6710000000      30.1         20.3350055123   42.3010678933   46.7458368881 
  17.9     0.0400500000   -4.2000000000   18.7200000000   32.4390000000   -0.3708490000    0.5815420000    0.6322020000   26.0000000000  -38.4880000000  -28.0830000000      30.1         23.3510576594   42.6099404854   37.5910534299 
  18.0     0.0400500000   -4.2400000000   18.5600000000   32.4930000000   -0.3575430000    0.6304930000    0.6887200000   -2.4040000000   -8.8010000000  -20.1290000000      29.9         20.9527404258   42.4727375701   42.2215114127 
  18.0     0.0400500000   -4.2260000000   18.4130000000   32.5200000000   -0.3767080000    0.6494140000    0.7099600000   -6.3280000000   -2.8770000000   -3.2130000000      30.1         21.3811837773   42.4497532948   41.8290344895 
  18.1     0.0400490000   -4.2530000000   18.2260000000   32.7200000000   -0.3708490000    0.6140130000    0.6810300000  -14.9310000000    3.5410000000   -4.7860000000      29.8         22.0200607752   42.0376511284   40.6725472746 
  18.1     0.0400500000   -4.3860000000   17.7460000000   32.9330000000   -0.3444820000    0.6148680000    0.7409660000  -18.8930000000    7.2360000000   10.7170000000      30.1         19.6857231874   39.6865475294   41.8778926478 
  18.1     0.0400500000   -4.2930000000   17.2130000000   33.1730000000   -0.3978270000    0.6083980000    0.6823730000  -23.5870000000   12.9690000000   28.9460000000      29.9         23.5167016039   41.7199263181   41.2737158088 
  18.2     0.0400500000   -4.3600000000   16.6660000000   33.4130000000   -0.3458250000    0.6206050000    0.7596430000  -28.2590000000   16.0760000000   27.2290000000      30.1         19.4201507848   39.2477671547   45.8322212053 
  18.2     0.0400510000   -4.1460000000   15.7060000000   34.0260000000   -0.3680410000    0.5653070000    0.6921380000  -48.9080000000   17.1520000000   51.6180000000      29.9         22.3836228212   39.2403946020   43.1481642259 
  18.3     0.0400500000   -4.3860000000   14.6800000000   34.3730000000   -0.3222650000    0.5771480000    0.7646480000  -38.6410000000   26.2510000000   38.3510000000      30.1         18.5923952233   37.0451084297   50.5058541476 
  18.3     0.0400500000   -4.4800000000   13.9460000000   34.6260000000   -0.3254390000    0.5429680000    0.7449950000  -32.6250000000   18.5800000000   43.1220000000      29.8         19.4442079819   36.0853514243   49.3827921446 
  18.3     0.0400490000   -4.4930000000   13.0930000000   35.0800000000   -0.3239740000    0.5834960000    0.7918700000  -41.5950000000   21.2740000000   49.9080000000      29.9         18.2301311819   36.3849540337   55.7309191655 
  18.4     0.0400500000   -4.6400000000   12.3200000000   35.3060000000   -0.3096920000    0.5385740000    0.7912590000  -32.2360000000   15.4270000000   32.1220000000      29.9         17.9291667313   34.2413372168   55.2980209554 
  18.4     0.0400500000   -4.7330000000   11.4400000000   35.5730000000   -0.2917480000    0.5258780000    0.7944330000  -34.1060000000   15.6640000000   37.3740000000      30.1         17.0260050032   33.5027215004   59.2403531244 
  18.5     0.0400500000   -4.7330000000   10.7460000000   35.7200000000   -0.3035880000    0.5126950000    0.7828360000  -38.8540000000   14.9840000000   42.7630000000      30.1         17.9741845344   33.2215935396   58.2948810413 
  18.5     0.0400500000   -4.9860000000    9.8000000000   36.0800000000   -0.2895500000    0.5225830000    0.8441160000  -40.9690000000   19.4650000000   42.5950000000      30.1         16.2595294024   31.7611975551   63.7917191535 
  18.5     0.0400500000   -4.9730000000    8.5060000000   36.3730000000   -0.2769770000    0.4968260000    0.8516840000  -63.2440000000   14.7930000000   75.2970000000      30.1         15.6905258393   30.2569558292   66.0897368417 
  18.6     0.0400500000   -5.0260000000    6.6660000000   36.6400000000   -0.2893060000    0.4858390000    0.8392330000  -78.7860000000   20.5190000000   70.0150000000      29.9         16.6119766267   30.0669088646   67.5392542205 
  18.6     0.0400490000   -5.1060000000    4.1600000000   37.0930000000   -0.2744140000    0.3843990000    0.8685300000 -113.5340000000   20.0000000000  114.9000000000      30.1         16.1150509004   23.8734984742   66.0569338626 
  18.7     0.0400500000   -5.7330000000    1.9200000000   37.0660000000   -0.2243650000    0.4064940000    0.8950190000  -98.5340000000   36.6940000000  125.0640000000      29.9         12.8571875992   24.4262947778   81.2208319199 
  18.7     0.0400500000   -6.6530000000    1.2000000000   36.9330000000   -0.2637930000    0.3580320000    0.8620600000  -34.8090000000   37.1750000000  102.4190000000      29.9         15.7802467099   22.5541595008   77.0666748589 
  18.7     0.0400500000   -7.5330000000    0.8000000000   36.6800000000   -0.2416990000    0.3166500000    0.8986810000  -25.2900000000   38.3660000000   94.4270000000      29.9         14.2336006498   19.4098950925   83.6637511555 
  18.8     0.0400500000   -9.0660000000    1.1200000000   36.4530000000   -0.2459710000    0.3699950000    0.9310300000  -11.8770000000   56.2290000000  115.2740000000      29.9         13.7941663928   21.6730683613   92.8974122129 
  18.8     0.0400500000   -9.9730000000    0.6130000000   36.2800000000   -0.2438960000    0.4125970000    0.8873290000  -38.5800000000   29.4730000000   82.0300000000      29.9         13.9951708357   24.9378444439   96.4194039836 
  18.9     0.0400500000  -10.2530000000    0.0930000000   36.1860000000   -0.2231440000    0.2824700000    0.9488520000  -43.6790000000   10.5410000000   86.1520000000      30.1         12.7020263954   16.5780887414  103.0389149217 
  18.9     0.0400500000  -10.9860000000   -0.6530000000   36.0660000000   -0.2257080000    0.3641350000    0.8984370000  -53.9610000000   27.5640000000   97.2900000000      29.8         13.1064987807   22.0626295140  102.6482201241 
  18.9     0.0400500000  -11.5460000000   -0.8260000000   35.8260000000   -0.1900630000    0.2709960000    0.9892570000  -21.9840000000   14.3510000000   60.5260000000      30.1         10.4978420073   15.3197152386  116.4128678788 
  19.0     0.0400500000  -11.7330000000   -1.0800000000   35.7730000000   -0.2366940000    0.2995600000    0.9099120000  -17.7250000000    4.1980000000   32.4650000000      30.1         13.8788256922   18.2225089536  105.2128368575 
  19.0     0.0400500000  -12.2530000000   -1.0130000000   35.5460000000   -0.1932370000    0.3436270000    0.9556880000  -13.1370000000   19.9540000000   56.0760000000      29.9         10.7729551074   19.7765460529  114.2558761270 
  19.1     0.0400500000  -12.4660000000   -0.9600000000   35.5460000000   -0.2153320000    0.3007810000    0.9249260000   -6.3890000000    3.0680000000   22.6330000000      30.1         12.4837729740   18.0142489321  112.4871931716 
  19.1     0.0400500000  -13.2400000000   -1.1460000000   35.2130000000   -0.1953120000    0.2778320000    0.9127190000  -27.8090000000   28.7550000000   66.4270000000      30.1         11.5694476245   16.9302682741  118.9616890199 
  19.1     0.0400500000  -13.6000000000   -1.1060000000   35.0930000000   -0.1345210000    0.2551260000    1.0041500000   -0.0990000000    5.5950000000    6.8620000000      29.8          7.3978880478   14.2555952242  133.2652983998 
  19.2     0.0400490000  -13.1730000000   -1.0660000000   35.3730000000   -0.2061760000    0.2509760000    0.9051510000   17.5570000000  -12.5720000000  -51.0000000000      29.9         12.3800509436   15.4973791037  118.2044333713 
  19.2     0.0400500000  -13.1060000000   -1.0260000000   35.3600000000   -0.2167960000    0.2757560000    0.9455560000   12.1980000000   -2.9230000000  -31.4040000000      29.9         12.4134110499   16.2584642162  117.0758435550 
  19.3     0.0400500000  -12.8530000000   -0.8660000000   35.4530000000   -0.1966550000    0.3282470000    0.9437250000   23.9160000000  -11.2740000000  -42.9080000000      29.8         11.1344213142   19.1787278065  116.4443194107 
  19.3     0.0400500000  -12.6000000000   -0.5060000000   35.5460000000   -0.2237540000    0.2987060000    0.9246820000   26.3740000000   -8.5570000000  -30.7090000000      30.1         12.9670862250   17.9023482398  112.4920581459 
  19.3     0.0400500000  -12.2930000000   -0.2130000000   35.7600000000   -0.2283930000    0.3273920000    0.9166250000   13.7480000000   -7.9160000000  -15.5800000000      29.9         13.2055028517   19.6552614309  109.3360837825 
  19.4     0.0400500000  -12.2260000000    0.5460000000   35.7730000000   -0.2198480000    0.3422850000    0.8789060000   36.0830000000   -4.0830000000  -22.9380000000      30.1         13.1205953602   21.2781464215  109.0003356247 
  19.4     0.0400500000  -12.2260000000    0.6260000000   35.7860000000   -0.2496330000    0.3444820000    0.8743890000   17.1600000000    2.0380000000  -25.8320000000      29.9         14.8756042484   21.5028936576  104.3628386795 
  19.5     0.0400500000  -12.3600000000    0.2660000000   35.9330000000   -0.2370600000    0.3688960000    0.9329830000  -22.2740000000    7.1600000000   -0.3580000000      29.9         13.2944884410   21.5735513721  108.4366890892 
  19.5     0.0400500000  -12.3600000000   -0.0400000000   35.8660000000   -0.2242430000    0.3160400000    0.9471430000  -16.1900000000   -1.6870000000   -1.6330000000      30.1         12.6577221845   18.4526775717  112.0229031538 
  19.5     0.0400500000  -11.9460000000   -1.0000000000   35.9460000000   -0.2185050000    0.3443600000    0.8969720000  -29.8770000000  -16.8320000000  -18.7400000000      30.1         12.8122419096   21.0024890445  107.2351813258 
  19.6     0.0400500000  -11.6260000000   -1.0260000000   36.0660000000   -0.2290030000    0.3052970000    0.9105220000    2.2740000000  -10.9380000000  -25.6640000000      30.0         13.4122668875   18.5362443768  105.5144644517 
  19.6     0.0400500000  -11.1860000000   -1.7060000000   36.2800000000   -0.2199700000    0.3166500000    0.9516600000  -32.1830000000  -12.8470000000    0.8390000000      29.8         12.3703235708   18.4040575230  105.6688357309 
  19.7     0.0400490000  -10.8000000000   -2.2930000000   36.3460000000   -0.2072750000    0.2727050000    0.9204100000  -19.6250000000  -17.3960000000   -8.4730000000      29.8         12.1842826528   16.5038421047  104.9293897495 
  19.7     0.0400500000  -10.1600000000   -2.4660000000   36.5200000000   -0.2026360000    0.2581780000    0.9124750000    0.3960000000  -23.3430000000  -29.6640000000      30.2         12.0618014190   15.7984652625  102.5111182478 
  19.7     0.0400490000   -9.8530000000   -2.7600000000   36.5860000000   -0.1596670000    0.2495110000    0.9150390000   -8.4420000000   -6.3200000000  -30.2360000000      30.1          9.5558975694   15.2524907387  107.9352268124 
  19.8     0.0400500000   -9.1730000000   -3.4400000000   36.8660000000   -0.1900630000    0.2521970000    0.9162590000  -18.8770000000  -15.9840000000  -64.0680000000      29.9         11.3097172439   15.3893760271   99.5470251997 
  19.8     0.0400500000   -8.4000000000   -4.3600000000   37.0130000000   -0.1820060000    0.1855460000    0.9536130000  -28.8390000000  -22.9460000000  -65.9610000000      29.9         10.6111341829   11.0105603260   98.6155173494 
  19.9     0.0400500000   -7.3730000000   -5.4130000000   37.1600000000   -0.1921380000    0.2116690000    0.9173580000  -26.4500000000  -28.5870000000  -79.5800000000      29.8         11.5347977665   12.9928970967   90.9544543504 
  19.9     0.0400500000   -6.4260000000   -5.7860000000   37.5200000000   -0.1922600000    0.1409910000    0.9991450000  -10.1980000000  -15.8770000000  -60.5870000000      30.1         10.7876512150    8.0320693331   87.4431096609 
  19.9     0.0400490000   -5.6400000000   -6.0260000000   37.6660000000   -0.1796870000    0.1577140000    0.9781490000   -5.2670000000  -20.8470000000  -56.4800000000      30.1         10.2793630680    9.1593801549   85.6192743805 
  20.0     0.0400500000   -4.8930000000   -6.4400000000   37.7860000000   -0.1970210000    0.1252440000    0.9943840000  -14.6100000000  -21.6030000000  -42.3200000000      30.1         11.1214274193    7.1786793904   78.4287976384 
  20.0     0.0400500000   -4.3200000000   -6.6800000000   37.9060000000   -0.1660150000    0.1353750000    0.9687500000   -4.7400000000  -13.2590000000  -38.4800000000      30.1          9.6325188396    7.9551081079   81.0509045573 
  20.1     0.0400500000   -3.5860000000   -6.9330000000   38.1730000000   -0.1962890000    0.1402580000    0.9904780000  -13.8540000000  -16.6870000000  -28.6940000000      29.9         11.1014496211    8.0598596955   73.7042397568 
  20.1     0.0400500000   -3.3200000000   -7.2130000000   38.2260000000   -0.1542960000    0.1179190000    0.9822990000   -9.5570000000  -10.6640000000  -16.1220000000      29.8          8.8642551181    6.8452528103   78.2579316215 
  20.1     0.0400500000   -2.9730000000   -7.0800000000   38.4130000000   -0.1724850000    0.1163330000    0.9681390000    9.9690000000   -8.4880000000  -24.9380000000      30.2         10.0312243959    6.8518931414   72.9175521168 
  20.2     0.0400500000   -2.6930000000   -7.0400000000   38.7460000000   -0.1540520000    0.1036370000    0.9892570000   -6.3960000000   -5.8540000000  -15.1060000000      29.8          8.8038714876    5.9806311702   74.1965376833 
  20.2     0.0400490000   -2.5600000000   -7.2530000000   38.7330000000   -0.1228020000    0.1192620000    1.0627440000   -7.2670000000   -7.3810000000   -7.2360000000      30.0          6.5506405317    6.4029901554   81.3404968087 
  20.3     0.0400500000   -2.3860000000   -7.6400000000   38.7460000000   -0.1491690000    0.0977780000    0.9641110000  -17.3740000000   -8.6790000000    8.5030000000      29.9          8.7509780876    5.7910104804   73.5930578081 
  20.3     0.0400500000   -2.4400000000   -7.9060000000   38.7730000000   -0.1202390000    0.1085200000    1.0203850000   -5.7630000000   -3.5410000000   10.7780000000      30.1          6.6832188492    6.0707021183   80.6650543503 
  20.3     0.0400500000   -1.8400000000   -8.0530000000   38.9460000000   -0.0937500000    0.0773920000    1.0804440000  -14.0380000000  -36.1370000000   12.9690000000      30.1          4.9465167143    4.0970882906   82.2762435591 
  20.4     0.0400500000   -0.9200000000   -9.1060000000   38.6660000000   -0.0692130000    0.0747070000    1.0451660000  -39.9080000000  -32.4880000000   16.8770000000      30.1          3.7790965173    4.0884685120   82.3930706384 
  20.4     0.0400500000   -0.6000000000   -9.4930000000   38.6000000000   -0.0759270000    0.0484610000    0.9916990000  -14.6560000000  -13.4350000000    0.0450000000      30.1          4.3729715571    2.7976268984   78.5303401852 
  20.5     0.0400500000    0.3200000000  -10.4130000000   38.4800000000   -0.0484610000    0.0102530000    0.9932860000  -37.9160000000  -34.8700000000    3.5570000000      29.9          2.7930155799    0.5914034470   78.5504317394 
  20.5     0.0400490000    1.6800000000  -11.4130000000   38.0130000000   -0.0208740000    0.0184320000    1.0056150000  -43.0680000000  -49.2130000000  -10.5410000000      30.1          1.1889436913    1.0500614719   78.4973868356 
  20.5     0.0400500000    2.1060000000  -12.2530000000   37.6660000000    0.0125730000   -0.0352780000    1.0289300000  -26.1060000000  -10.8160000000   -0.5260000000      30.1         -0.6996792822   -1.9636797818   81.4806927693 
  20.6     0.0400500000    2.0800000000  -12.2530000000   37.6930000000    0.0026850000   -0.0332030000    1.0034170000    0.1450000000    0.0530000000   -1.0990000000      30.1         -0.1532310574   -1.8952219125   79.8050643517 
  20.6     0.0400500000    2.2000000000  -12.2130000000   37.7860000000    0.0037840000   -0.0344230000    1.0035400000    0.1980000000   -0.1370000000   -0.1600000000      29.9         -0.2159144319   -1.9645650717   79.3276685750 
